"subject_id","trial_index","is_monolingual","colour","target","distractor","accuracy","rt"
"54af2a48fdf99b09c01b3801",5,"NA","blues",12,14,0,1082.09999990463
"54af2a48fdf99b09c01b3801",6,"NA","yellows",17,19,1,881.10000038147
"54af2a48fdf99b09c01b3801",7,"NA","yellows",3,1,1,713.5
"54af2a48fdf99b09c01b3801",8,"NA","reds",19,17,1,833.89999961853
"54af2a48fdf99b09c01b3801",9,"NA","browns",1,3,1,1092.09999990463
"54af2a48fdf99b09c01b3801",10,"NA","browns",6,4,1,659.200000286102
"54af2a48fdf99b09c01b3801",11,"NA","blues",11,9,1,951.900000095367
"54af2a48fdf99b09c01b3801",12,"NA","reds",10,12,0,903.800000190735
"54af2a48fdf99b09c01b3801",13,"NA","yellows",15,17,1,965
"54af2a48fdf99b09c01b3801",14,"NA","reds",15,17,1,960.39999961853
"54af2a48fdf99b09c01b3801",15,"NA","reds",8,10,0,1017.10000038147
"54af2a48fdf99b09c01b3801",16,"NA","browns",19,17,1,1194.69999980927
"54af2a48fdf99b09c01b3801",17,"NA","blues",10,8,0,771.5
"54af2a48fdf99b09c01b3801",18,"NA","reds",16,18,1,1048
"54af2a48fdf99b09c01b3801",19,"NA","browns",3,5,1,943.199999809265
"54af2a48fdf99b09c01b3801",20,"NA","blues",11,9,0,1029.89999961853
"54af2a48fdf99b09c01b3801",21,"NA","blues",4,2,0,1349.10000038147
"54af2a48fdf99b09c01b3801",22,"NA","browns",15,13,1,769.5
"54af2a48fdf99b09c01b3801",23,"NA","yellows",7,9,1,878.599999904633
"54af2a48fdf99b09c01b3801",24,"NA","browns",15,13,1,1161.09999990463
"54af2a48fdf99b09c01b3801",25,"NA","reds",8,6,1,872.5
"54af2a48fdf99b09c01b3801",26,"NA","yellows",13,15,0,654.900000095367
"54af2a48fdf99b09c01b3801",27,"NA","blues",4,6,0,1208.90000009537
"54af2a48fdf99b09c01b3801",28,"NA","yellows",10,8,1,1563.59999990463
"54af2a48fdf99b09c01b3801",29,"NA","browns",2,4,1,998.199999809265
"54af2a48fdf99b09c01b3801",30,"NA","reds",17,15,0,1170.5
"54af2a48fdf99b09c01b3801",31,"NA","browns",15,17,0,729.199999809265
"54af2a48fdf99b09c01b3801",32,"NA","blues",18,20,0,1452.5
"54af2a48fdf99b09c01b3801",33,"NA","reds",11,9,1,1260.10000038147
"54af2a48fdf99b09c01b3801",34,"NA","blues",13,11,1,864.699999809265
"54af2a48fdf99b09c01b3801",35,"NA","reds",16,14,1,1102.59999990463
"54af2a48fdf99b09c01b3801",36,"NA","blues",20,18,1,1087.59999990463
"54af2a48fdf99b09c01b3801",37,"NA","blues",17,19,1,1073.19999980927
"54af2a48fdf99b09c01b3801",38,"NA","blues",19,17,1,740.300000190735
"54af2a48fdf99b09c01b3801",39,"NA","reds",13,15,0,734.60000038147
"54af2a48fdf99b09c01b3801",40,"NA","blues",13,15,1,747.700000286102
"54af2a48fdf99b09c01b3801",41,"NA","yellows",18,20,1,1168.40000009537
"54af2a48fdf99b09c01b3801",42,"NA","yellows",12,10,1,2099.80000019073
"54af2a48fdf99b09c01b3801",43,"NA","yellows",5,3,1,1009.2999997139
"54af2a48fdf99b09c01b3801",44,"NA","reds",4,2,1,1064.80000019073
"54af2a48fdf99b09c01b3801",45,"NA","yellows",14,16,0,1295.80000019073
"54af2a48fdf99b09c01b3801",46,"NA","reds",13,15,0,1152.80000019073
"54af2a48fdf99b09c01b3801",47,"NA","browns",12,10,1,695.5
"54af2a48fdf99b09c01b3801",48,"NA","yellows",10,12,1,862.199999809265
"54af2a48fdf99b09c01b3801",49,"NA","yellows",10,8,1,706
"54af2a48fdf99b09c01b3801",50,"NA","blues",17,15,0,625.900000095367
"54af2a48fdf99b09c01b3801",51,"NA","yellows",13,15,1,1523.7999997139
"54af2a48fdf99b09c01b3801",52,"NA","browns",13,15,1,788.599999904633
"54af2a48fdf99b09c01b3801",53,"NA","yellows",5,3,1,757.800000190735
"54af2a48fdf99b09c01b3801",55,"NA","browns",4,6,1,1134.80000019073
"54af2a48fdf99b09c01b3801",56,"NA","reds",3,5,1,1085.7000002861
"54af2a48fdf99b09c01b3801",57,"NA","yellows",18,16,1,690.400000095367
"54af2a48fdf99b09c01b3801",58,"NA","yellows",7,9,1,1115.59999990463
"54af2a48fdf99b09c01b3801",59,"NA","reds",10,8,1,1460.90000009537
"54af2a48fdf99b09c01b3801",60,"NA","blues",15,17,0,690.199999809265
"54af2a48fdf99b09c01b3801",61,"NA","reds",18,16,1,1781.90000009537
"54af2a48fdf99b09c01b3801",62,"NA","blues",12,10,1,567.5
"54af2a48fdf99b09c01b3801",63,"NA","yellows",20,18,1,633.200000286102
"54af2a48fdf99b09c01b3801",64,"NA","yellows",6,4,0,874
"54af2a48fdf99b09c01b3801",65,"NA","blues",15,13,1,599.799999713898
"54af2a48fdf99b09c01b3801",66,"NA","blues",10,12,1,866.800000190735
"54af2a48fdf99b09c01b3801",67,"NA","reds",9,7,1,583.599999904633
"54af2a48fdf99b09c01b3801",68,"NA","browns",10,12,1,1207.60000038147
"54af2a48fdf99b09c01b3801",69,"NA","blues",14,12,1,829.200000286102
"54af2a48fdf99b09c01b3801",70,"NA","yellows",15,13,1,646.900000095367
"54af2a48fdf99b09c01b3801",71,"NA","browns",18,16,1,651
"54af2a48fdf99b09c01b3801",72,"NA","blues",12,10,1,1158.40000009537
"54af2a48fdf99b09c01b3801",73,"NA","browns",2,4,1,718.300000190735
"54af2a48fdf99b09c01b3801",74,"NA","browns",17,19,1,963.400000095367
"54af2a48fdf99b09c01b3801",75,"NA","blues",9,7,1,695.900000095367
"54af2a48fdf99b09c01b3801",76,"NA","blues",3,5,1,1332.7000002861
"54af2a48fdf99b09c01b3801",77,"NA","yellows",3,5,1,1274.7000002861
"54af2a48fdf99b09c01b3801",78,"NA","browns",18,20,1,867.200000286102
"54af2a48fdf99b09c01b3801",79,"NA","reds",16,14,1,999.800000190735
"54af2a48fdf99b09c01b3801",80,"NA","reds",20,18,1,2023.19999980926
"54af2a48fdf99b09c01b3801",81,"NA","browns",11,9,1,566.5
"54af2a48fdf99b09c01b3801",82,"NA","reds",19,17,1,737.700000286102
"54af2a48fdf99b09c01b3801",83,"NA","reds",13,11,1,1002.30000019073
"54af2a48fdf99b09c01b3801",84,"NA","blues",16,18,1,1286.69999980927
"54af2a48fdf99b09c01b3801",85,"NA","reds",9,11,1,1466.40000009537
"54af2a48fdf99b09c01b3801",86,"NA","yellows",17,19,1,732.900000095367
"54af2a48fdf99b09c01b3801",87,"NA","reds",8,10,1,971.400000095367
"54af2a48fdf99b09c01b3801",88,"NA","reds",7,9,1,1100.90000009537
"54af2a48fdf99b09c01b3801",89,"NA","blues",17,15,1,628.099999904633
"54af2a48fdf99b09c01b3801",90,"NA","reds",3,1,1,935.699999809265
"54af2a48fdf99b09c01b3801",91,"NA","browns",17,19,1,823.699999809265
"54af2a48fdf99b09c01b3801",92,"NA","yellows",13,11,1,640.60000038147
"54af2a48fdf99b09c01b3801",93,"NA","yellows",15,13,0,2759.19999980927
"54af2a48fdf99b09c01b3801",94,"NA","browns",9,7,1,546.799999713898
"54af2a48fdf99b09c01b3801",95,"NA","yellows",11,9,1,813.099999904633
"54af2a48fdf99b09c01b3801",96,"NA","yellows",16,18,0,612.299999713898
"54af2a48fdf99b09c01b3801",97,"NA","reds",12,10,1,1274.5
"54af2a48fdf99b09c01b3801",98,"NA","blues",5,3,1,978.400000095367
"54af2a48fdf99b09c01b3801",99,"NA","browns",17,15,1,636.5
"54af2a48fdf99b09c01b3801",100,"NA","browns",16,14,1,719.5
"54af2a48fdf99b09c01b3801",101,"NA","yellows",13,11,0,1353.59999990463
"54af2a48fdf99b09c01b3801",102,"NA","reds",5,7,1,751.5
"54af2a48fdf99b09c01b3801",103,"NA","yellows",16,14,1,624.300000190735
"54af2a48fdf99b09c01b3801",104,"NA","browns",17,15,1,580
"54af2a48fdf99b09c01b3801",106,"NA","yellows",9,7,0,1503.30000019073
"54af2a48fdf99b09c01b3801",107,"NA","browns",4,2,1,709.300000190735
"54af2a48fdf99b09c01b3801",108,"NA","reds",1,3,0,729.5
"54af2a48fdf99b09c01b3801",109,"NA","yellows",1,3,1,1204.59999990463
"54af2a48fdf99b09c01b3801",110,"NA","browns",7,5,1,675.200000286102
"54af2a48fdf99b09c01b3801",111,"NA","yellows",5,7,0,706.300000190735
"54af2a48fdf99b09c01b3801",112,"NA","yellows",14,12,1,703.60000038147
"54af2a48fdf99b09c01b3801",113,"NA","blues",10,12,0,683.400000095367
"54af2a48fdf99b09c01b3801",114,"NA","blues",8,6,1,987.400000095367
"54af2a48fdf99b09c01b3801",115,"NA","blues",1,3,1,736.300000190735
"54af2a48fdf99b09c01b3801",116,"NA","reds",13,11,1,645.099999904633
"54af2a48fdf99b09c01b3801",117,"NA","browns",4,2,1,603.599999904633
"54af2a48fdf99b09c01b3801",118,"NA","yellows",16,18,1,825.39999961853
"54af2a48fdf99b09c01b3801",119,"NA","blues",14,16,0,1468.30000019073
"54af2a48fdf99b09c01b3801",120,"NA","reds",10,8,1,708.599999904633
"54af2a48fdf99b09c01b3801",121,"NA","reds",17,19,0,750.300000190735
"54af2a48fdf99b09c01b3801",122,"NA","reds",17,19,1,1286.69999980927
"54af2a48fdf99b09c01b3801",123,"NA","reds",5,3,1,725.599999904633
"54af2a48fdf99b09c01b3801",124,"NA","browns",20,18,1,690.599999904633
"54af2a48fdf99b09c01b3801",125,"NA","yellows",8,10,0,1081.40000009537
"54af2a48fdf99b09c01b3801",126,"NA","reds",4,6,0,651.200000286102
"54af2a48fdf99b09c01b3801",127,"NA","yellows",17,15,1,633.699999809265
"54af2a48fdf99b09c01b3801",128,"NA","reds",18,20,1,1352.7999997139
"54af2a48fdf99b09c01b3801",129,"NA","reds",3,5,1,878.299999713898
"54af2a48fdf99b09c01b3801",130,"NA","browns",11,13,1,845.199999809265
"54af2a48fdf99b09c01b3801",131,"NA","browns",10,8,1,628.900000095367
"54af2a48fdf99b09c01b3801",132,"NA","reds",14,16,0,777.599999904633
"54af2a48fdf99b09c01b3801",133,"NA","reds",17,15,0,675.200000286102
"54af2a48fdf99b09c01b3801",134,"NA","yellows",8,6,1,652
"54af2a48fdf99b09c01b3801",135,"NA","yellows",18,20,0,729.099999904633
"54af2a48fdf99b09c01b3801",136,"NA","yellows",3,1,1,739.799999713898
"54af2a48fdf99b09c01b3801",137,"NA","browns",8,10,1,763.300000190735
"54af2a48fdf99b09c01b3801",138,"NA","yellows",8,10,1,917.700000286102
"54af2a48fdf99b09c01b3801",139,"NA","yellows",12,14,1,1062.69999980927
"54af2a48fdf99b09c01b3801",140,"NA","reds",6,8,1,1292.90000009537
"54af2a48fdf99b09c01b3801",141,"NA","browns",13,11,1,1472.59999990463
"54af2a48fdf99b09c01b3801",142,"NA","blues",8,10,0,1114.2000002861
"54af2a48fdf99b09c01b3801",143,"NA","blues",13,15,1,1270.5
"54af2a48fdf99b09c01b3801",144,"NA","blues",18,16,1,610.200000286102
"54af2a48fdf99b09c01b3801",145,"NA","reds",2,4,0,939.299999713898
"54af2a48fdf99b09c01b3801",146,"NA","blues",3,5,1,707.900000095367
"54af2a48fdf99b09c01b3801",147,"NA","reds",1,3,0,995.699999809265
"54af2a48fdf99b09c01b3801",148,"NA","browns",3,1,1,694.60000038147
"54af2a48fdf99b09c01b3801",149,"NA","reds",9,11,1,1350.2999997139
"54af2a48fdf99b09c01b3801",150,"NA","reds",5,3,1,1139.5
"54af2a48fdf99b09c01b3801",151,"NA","blues",7,5,1,1676.2999997139
"54af2a48fdf99b09c01b3801",152,"NA","browns",12,14,0,643.900000095367
"54af2a48fdf99b09c01b3801",153,"NA","yellows",6,8,1,1069.59999990463
"54af2a48fdf99b09c01b3801",154,"NA","blues",11,13,1,2196.80000019073
"54af2a48fdf99b09c01b3801",155,"NA","blues",1,3,1,1191.69999980927
"54af2a48fdf99b09c01b3801",157,"NA","yellows",16,14,1,1305
"54af2a48fdf99b09c01b3801",158,"NA","blues",16,14,1,616.199999809265
"54af2a48fdf99b09c01b3801",159,"NA","browns",14,16,0,563.299999713898
"54af2a48fdf99b09c01b3801",160,"NA","blues",2,4,1,680
"54af2a48fdf99b09c01b3801",161,"NA","reds",10,12,1,883.199999809265
"54af2a48fdf99b09c01b3801",162,"NA","browns",13,11,1,537.900000095367
"54af2a48fdf99b09c01b3801",163,"NA","blues",19,17,1,620.60000038147
"54af2a48fdf99b09c01b3801",164,"NA","browns",9,11,1,834.099999904633
"54af2a48fdf99b09c01b3801",165,"NA","yellows",11,9,1,623.800000190735
"54af2a48fdf99b09c01b3801",166,"NA","reds",7,5,1,648.60000038147
"54af2a48fdf99b09c01b3801",167,"NA","browns",6,8,1,806.400000095367
"54af2a48fdf99b09c01b3801",168,"NA","browns",6,4,1,671.799999713898
"54af2a48fdf99b09c01b3801",169,"NA","blues",16,14,1,590.400000095367
"54af2a48fdf99b09c01b3801",170,"NA","browns",3,5,1,686.699999809265
"54af2a48fdf99b09c01b3801",171,"NA","blues",20,18,1,661.599999904633
"54af2a48fdf99b09c01b3801",172,"NA","yellows",6,4,1,640.400000095367
"54af2a48fdf99b09c01b3801",173,"NA","yellows",6,8,0,860.900000095367
"54af2a48fdf99b09c01b3801",174,"NA","browns",4,6,1,790.89999961853
"54af2a48fdf99b09c01b3801",175,"NA","yellows",7,5,1,1666.7000002861
"54af2a48fdf99b09c01b3801",176,"NA","blues",7,9,1,645.299999713898
"54af2a48fdf99b09c01b3801",177,"NA","yellows",12,10,1,713.599999904633
"54af2a48fdf99b09c01b3801",178,"NA","reds",6,4,1,678.900000095367
"54af2a48fdf99b09c01b3801",179,"NA","blues",7,5,1,589.199999809265
"54af2a48fdf99b09c01b3801",180,"NA","browns",16,18,1,1037.40000009537
"54af2a48fdf99b09c01b3801",181,"NA","browns",8,6,1,589.099999904633
"54af2a48fdf99b09c01b3801",182,"NA","blues",3,1,1,630.900000095367
"54af2a48fdf99b09c01b3801",183,"NA","blues",3,1,1,563.5
"54af2a48fdf99b09c01b3801",184,"NA","browns",5,3,1,627.099999904633
"54af2a48fdf99b09c01b3801",185,"NA","reds",4,6,1,672.5
"54af2a48fdf99b09c01b3801",186,"NA","browns",6,8,1,656.599999904633
"54af2a48fdf99b09c01b3801",187,"NA","yellows",4,6,1,851.300000190735
"54af2a48fdf99b09c01b3801",188,"NA","browns",18,16,1,674.5
"54af2a48fdf99b09c01b3801",189,"NA","blues",5,7,1,707.699999809265
"54af2a48fdf99b09c01b3801",190,"NA","reds",12,14,1,1661.09999990463
"54af2a48fdf99b09c01b3801",191,"NA","browns",7,9,1,649.699999809265
"54af2a48fdf99b09c01b3801",192,"NA","reds",9,7,0,2046.90000009537
"54af2a48fdf99b09c01b3801",193,"NA","browns",16,18,1,1033.5
"54af2a48fdf99b09c01b3801",194,"NA","reds",8,6,1,1780
"54af2a48fdf99b09c01b3801",195,"NA","blues",15,13,1,661.10000038147
"54af2a48fdf99b09c01b3801",196,"NA","reds",14,12,1,652
"54af2a48fdf99b09c01b3801",197,"NA","browns",7,9,1,642.10000038147
"54af2a48fdf99b09c01b3801",198,"NA","yellows",19,17,1,1325.5
"54af2a48fdf99b09c01b3801",199,"NA","blues",10,8,1,755.400000095367
"54af2a48fdf99b09c01b3801",200,"NA","reds",14,16,1,1265.5
"54af2a48fdf99b09c01b3801",201,"NA","yellows",18,16,1,675.10000038147
"54af2a48fdf99b09c01b3801",202,"NA","yellows",17,15,1,615.800000190735
"54af2a48fdf99b09c01b3801",203,"NA","blues",14,16,1,1202.30000019073
"54af2a48fdf99b09c01b3801",204,"NA","browns",19,17,0,780.299999713898
"54af2a48fdf99b09c01b3801",205,"NA","browns",15,17,1,671
"54af2a48fdf99b09c01b3801",206,"NA","browns",1,3,1,876
"54af2a48fdf99b09c01b3801",208,"NA","yellows",4,2,1,537.599999904633
"54af2a48fdf99b09c01b3801",209,"NA","blues",8,10,0,645.400000095367
"54af2a48fdf99b09c01b3801",210,"NA","yellows",4,2,1,640.599999904633
"54af2a48fdf99b09c01b3801",211,"NA","yellows",1,3,1,579.199999809265
"54af2a48fdf99b09c01b3801",212,"NA","reds",16,18,0,716.5
"54af2a48fdf99b09c01b3801",213,"NA","browns",5,7,0,706.099999904633
"54af2a48fdf99b09c01b3801",214,"NA","yellows",7,5,1,665.900000095367
"54af2a48fdf99b09c01b3801",215,"NA","yellows",14,12,1,580
"54af2a48fdf99b09c01b3801",216,"NA","blues",4,6,1,616.900000095367
"54af2a48fdf99b09c01b3801",217,"NA","yellows",10,12,1,605.200000286102
"54af2a48fdf99b09c01b3801",218,"NA","yellows",3,5,1,683.800000190735
"54af2a48fdf99b09c01b3801",219,"NA","blues",5,7,1,592.300000190735
"54af2a48fdf99b09c01b3801",220,"NA","yellows",19,17,1,602.700000286102
"54af2a48fdf99b09c01b3801",221,"NA","browns",20,18,1,592.299999713898
"54af2a48fdf99b09c01b3801",222,"NA","reds",11,9,1,694.199999809265
"54af2a48fdf99b09c01b3801",223,"NA","reds",18,20,1,1804
"54af2a48fdf99b09c01b3801",224,"NA","blues",18,20,0,545.900000095367
"54af2a48fdf99b09c01b3801",225,"NA","browns",11,9,1,580.299999713898
"54af2a48fdf99b09c01b3801",226,"NA","blues",14,12,1,564.300000190735
"54af2a48fdf99b09c01b3801",227,"NA","blues",11,13,1,772
"54af2a48fdf99b09c01b3801",228,"NA","reds",7,9,1,629.200000286102
"54af2a48fdf99b09c01b3801",229,"NA","blues",8,6,1,634.400000095367
"54af2a48fdf99b09c01b3801",230,"NA","browns",10,12,1,861.900000095367
"54af2a48fdf99b09c01b3801",231,"NA","browns",14,16,1,666.099999904633
"54af2a48fdf99b09c01b3801",232,"NA","blues",9,11,0,574.099999904633
"54af2a48fdf99b09c01b3801",233,"NA","reds",6,4,1,672.5
"54af2a48fdf99b09c01b3801",234,"NA","reds",15,13,1,549.199999809265
"54af2a48fdf99b09c01b3801",235,"NA","browns",8,10,1,1696.90000009537
"54af2a48fdf99b09c01b3801",236,"NA","blues",5,3,1,570.400000095367
"54af2a48fdf99b09c01b3801",237,"NA","reds",20,18,1,844.299999713898
"54af2a48fdf99b09c01b3801",238,"NA","yellows",9,11,0,554.89999961853
"54af2a48fdf99b09c01b3801",239,"NA","blues",16,18,1,853.199999809265
"54af2a48fdf99b09c01b3801",240,"NA","reds",7,5,1,675.599999904633
"54af2a48fdf99b09c01b3801",241,"NA","blues",9,11,1,559.099999904633
"54af2a48fdf99b09c01b3801",242,"NA","browns",14,12,1,587.599999904633
"54af2a48fdf99b09c01b3801",243,"NA","blues",6,4,1,606.199999809265
"54af2a48fdf99b09c01b3801",244,"NA","browns",18,20,1,1009
"54af2a48fdf99b09c01b3801",245,"NA","yellows",11,13,0,552
"54af2a48fdf99b09c01b3801",246,"NA","reds",15,17,0,600.599999904633
"54af2a48fdf99b09c01b3801",247,"NA","blues",2,4,1,819.800000190735
"54af2a48fdf99b09c01b3801",248,"NA","browns",9,7,1,635.699999809265
"54af2a48fdf99b09c01b3801",249,"NA","yellows",12,14,0,597
"54af2a48fdf99b09c01b3801",250,"NA","yellows",9,11,1,631.5
"54af2a48fdf99b09c01b3801",251,"NA","blues",15,17,0,691.800000190735
"54af2a48fdf99b09c01b3801",252,"NA","yellows",14,16,0,590.400000095367
"54af2a48fdf99b09c01b3801",253,"NA","blues",6,4,1,781
"54af2a48fdf99b09c01b3801",254,"NA","yellows",9,7,1,642
"54af2a48fdf99b09c01b3801",255,"NA","browns",13,15,1,707.799999713898
"54af2a48fdf99b09c01b3801",256,"NA","reds",11,13,0,618.5
"54af2a48fdf99b09c01b3801",257,"NA","reds",6,8,0,1211.90000009537
"54af2a48fdf99b09c01b3801",259,"NA","reds",12,10,1,491.5
"54af2a48fdf99b09c01b3801",260,"NA","browns",5,3,1,504.299999713898
"54af2a48fdf99b09c01b3801",261,"NA","blues",18,16,0,658.400000095367
"54af2a48fdf99b09c01b3801",262,"NA","yellows",15,17,0,621.300000190735
"54af2a48fdf99b09c01b3801",263,"NA","browns",12,14,0,531.900000095367
"54af2a48fdf99b09c01b3801",264,"NA","reds",18,16,0,1707
"54af2a48fdf99b09c01b3801",265,"NA","yellows",20,18,1,1140.2999997139
"54af2a48fdf99b09c01b3801",266,"NA","blues",17,19,1,1017.69999980927
"54af2a48fdf99b09c01b3801",267,"NA","browns",5,7,1,653.599999904633
"54af2a48fdf99b09c01b3801",268,"NA","yellows",5,7,0,923.599999904633
"54af2a48fdf99b09c01b3801",269,"NA","reds",4,2,1,629.599999904633
"54af2a48fdf99b09c01b3801",270,"NA","blues",6,8,1,735.400000095367
"54af2a48fdf99b09c01b3801",271,"NA","yellows",2,4,1,1003.59999990463
"54af2a48fdf99b09c01b3801",272,"NA","browns",7,5,1,646.199999809265
"54af2a48fdf99b09c01b3801",273,"NA","blues",7,9,1,621.800000190735
"54af2a48fdf99b09c01b3801",274,"NA","browns",11,13,1,677.199999809265
"54af2a48fdf99b09c01b3801",275,"NA","browns",8,6,1,636.10000038147
"54af2a48fdf99b09c01b3801",276,"NA","browns",14,12,1,561.5
"54af2a48fdf99b09c01b3801",277,"NA","reds",15,13,1,648.700000286102
"54af2a48fdf99b09c01b3801",278,"NA","browns",9,11,1,579.099999904633
"54af2a48fdf99b09c01b3801",279,"NA","reds",11,13,0,1234.90000009537
"54af2a48fdf99b09c01b3801",280,"NA","browns",12,10,1,710.099999904633
"54af2a48fdf99b09c01b3801",281,"NA","reds",14,12,1,1413.40000009537
"54af2a48fdf99b09c01b3801",282,"NA","blues",4,2,1,592.900000095367
"54af2a48fdf99b09c01b3801",283,"NA","yellows",2,4,1,1193.19999980927
"54af2a48fdf99b09c01b3801",284,"NA","yellows",8,6,1,530.400000095367
"54af2a48fdf99b09c01b3801",285,"NA","reds",12,14,1,604.099999904633
"54af2a48fdf99b09c01b3801",286,"NA","yellows",11,13,1,794.700000286102
"54af2a48fdf99b09c01b3801",287,"NA","browns",10,8,1,1059.09999990463
"54af2a48fdf99b09c01b3801",288,"NA","blues",13,11,1,1468.90000009537
"54af2a48fdf99b09c01b3801",289,"NA","reds",2,4,1,664.700000286102
"54af2a48fdf99b09c01b3801",290,"NA","reds",3,1,0,962.099999904633
"54af2a48fdf99b09c01b3801",291,"NA","blues",9,7,0,684.099999904633
"54af2a48fdf99b09c01b3801",292,"NA","blues",6,8,1,593.599999904633
"54af2a48fdf99b09c01b3801",293,"NA","reds",5,7,1,617.5
"54af2a48fdf99b09c01b3801",294,"NA","browns",16,14,1,596.699999809265
"54af2a48fdf99b09c01b3801",295,"NA","browns",3,1,1,611.400000095367
"54af2a48fdf99b09c01b3801",296,"NA","blues",12,14,0,1290.30000019073
"54af2a48fdf99b09c01b3801",297,"NA","yellows",4,6,0,631.599999904633
"557d84c8fdf99b4d577438df",5,"NA","yellows",13,15,0,2455.13499993831
"557d84c8fdf99b4d577438df",6,"NA","blues",16,14,1,1093.55499967933
"557d84c8fdf99b4d577438df",7,"NA","blues",1,3,1,1228.14000025392
"557d84c8fdf99b4d577438df",8,"NA","blues",2,4,0,1235.10499950498
"557d84c8fdf99b4d577438df",9,"NA","blues",7,5,1,1543.91000047326
"557d84c8fdf99b4d577438df",10,"NA","reds",11,9,1,1503.41999996454
"557d84c8fdf99b4d577438df",11,"NA","reds",10,12,1,1162.15999983251
"557d84c8fdf99b4d577438df",12,"NA","reds",19,17,1,2168.54999959469
"557d84c8fdf99b4d577438df",13,"NA","browns",1,3,0,1311.26500014216
"557d84c8fdf99b4d577438df",14,"NA","blues",7,5,1,852.87499986589
"557d84c8fdf99b4d577438df",15,"NA","browns",6,8,0,1005.10499998927
"557d84c8fdf99b4d577438df",16,"NA","browns",7,5,1,727.470000274479
"557d84c8fdf99b4d577438df",17,"NA","yellows",18,20,1,1381.72999955714
"557d84c8fdf99b4d577438df",18,"NA","reds",7,9,0,1510.14999952167
"557d84c8fdf99b4d577438df",19,"NA","yellows",13,11,1,1012.76500057429
"557d84c8fdf99b4d577438df",20,"NA","reds",18,16,0,1153.33500038832
"557d84c8fdf99b4d577438df",21,"NA","reds",20,18,0,753.470000810921
"557d84c8fdf99b4d577438df",22,"NA","blues",3,1,1,762.450000271201
"557d84c8fdf99b4d577438df",23,"NA","browns",9,11,0,877.899999730289
"557d84c8fdf99b4d577438df",24,"NA","blues",14,16,0,1268.41999962926
"557d84c8fdf99b4d577438df",25,"NA","reds",4,2,1,1061.34000048041
"557d84c8fdf99b4d577438df",26,"NA","yellows",9,7,1,1260.74500009418
"557d84c8fdf99b4d577438df",27,"NA","blues",9,11,0,1205.21999988705
"557d84c8fdf99b4d577438df",28,"NA","yellows",6,4,1,1056.50500021875
"557d84c8fdf99b4d577438df",29,"NA","blues",13,15,0,1837.20500022173
"557d84c8fdf99b4d577438df",30,"NA","browns",14,16,0,2249.54000022262
"557d84c8fdf99b4d577438df",31,"NA","reds",9,7,0,3218.72000023723
"557d84c8fdf99b4d577438df",32,"NA","blues",20,18,1,969.440000131726
"557d84c8fdf99b4d577438df",33,"NA","reds",7,5,1,901.589999906719
"557d84c8fdf99b4d577438df",34,"NA","yellows",18,16,1,758.515000343323
"557d84c8fdf99b4d577438df",35,"NA","browns",19,17,0,956.544999964535
"557d84c8fdf99b4d577438df",36,"NA","blues",17,15,1,1125.66999997944
"557d84c8fdf99b4d577438df",37,"NA","blues",16,18,0,747.024999931455
"557d84c8fdf99b4d577438df",38,"NA","reds",18,16,1,884.29499976337
"557d84c8fdf99b4d577438df",39,"NA","reds",8,10,0,1156.69000055641
"557d84c8fdf99b4d577438df",40,"NA","browns",11,13,1,1556.09000008553
"557d84c8fdf99b4d577438df",41,"NA","browns",5,3,1,1173.68500027806
"557d84c8fdf99b4d577438df",42,"NA","reds",16,14,1,758.030000142753
"557d84c8fdf99b4d577438df",43,"NA","reds",17,19,1,2271.06000017375
"557d84c8fdf99b4d577438df",44,"NA","browns",16,18,1,1636.33499946445
"557d84c8fdf99b4d577438df",45,"NA","blues",4,2,0,1111.41999997199
"557d84c8fdf99b4d577438df",46,"NA","browns",13,11,1,771.309999749064
"557d84c8fdf99b4d577438df",47,"NA","browns",6,8,1,1079.5700000599
"557d84c8fdf99b4d577438df",48,"NA","browns",15,13,1,933.129999786615
"557d84c8fdf99b4d577438df",49,"NA","blues",19,17,1,896.554999984801
"557d84c8fdf99b4d577438df",50,"NA","yellows",2,4,1,1086.20500005782
"557d84c8fdf99b4d577438df",51,"NA","browns",5,7,0,1262.17999961227
"557d84c8fdf99b4d577438df",52,"NA","yellows",8,10,0,1394.49500013143
"557d84c8fdf99b4d577438df",53,"NA","blues",3,5,0,1525.03999974579
"557d84c8fdf99b4d577438df",55,"NA","blues",5,3,1,2128.47999949008
"557d84c8fdf99b4d577438df",56,"NA","browns",12,10,1,904.670000076294
"557d84c8fdf99b4d577438df",57,"NA","yellows",12,14,0,922.059999778867
"557d84c8fdf99b4d577438df",58,"NA","reds",11,13,1,1807.11500067264
"557d84c8fdf99b4d577438df",59,"NA","browns",7,5,1,1557.30499979109
"557d84c8fdf99b4d577438df",60,"NA","yellows",8,6,0,1599.36499968171
"557d84c8fdf99b4d577438df",61,"NA","yellows",16,14,0,1571.03999983519
"557d84c8fdf99b4d577438df",62,"NA","blues",20,18,0,3503.54000087827
"557d84c8fdf99b4d577438df",63,"NA","yellows",10,8,1,2888.67999985814
"557d84c8fdf99b4d577438df",64,"NA","browns",9,7,1,1052.70499922335
"557d84c8fdf99b4d577438df",65,"NA","browns",14,16,0,6715.31500015408
"557d84c8fdf99b4d577438df",66,"NA","yellows",6,4,1,2029.64000031352
"557d84c8fdf99b4d577438df",67,"NA","reds",5,3,1,867.215000092983
"557d84c8fdf99b4d577438df",68,"NA","reds",11,13,0,982.324999757111
"557d84c8fdf99b4d577438df",69,"NA","yellows",14,16,0,928.385000675917
"557d84c8fdf99b4d577438df",70,"NA","yellows",9,11,1,1543.93000062555
"557d84c8fdf99b4d577438df",71,"NA","yellows",5,3,1,1008.16500000656
"557d84c8fdf99b4d577438df",72,"NA","reds",3,5,1,1397.36000075936
"557d84c8fdf99b4d577438df",73,"NA","browns",17,19,1,1956.78499992937
"557d84c8fdf99b4d577438df",74,"NA","reds",5,7,1,1658.95999968052
"557d84c8fdf99b4d577438df",75,"NA","browns",15,17,1,1571.11500017345
"557d84c8fdf99b4d577438df",76,"NA","reds",7,9,0,2207.88000058383
"557d84c8fdf99b4d577438df",77,"NA","blues",18,20,0,2755.01499976963
"557d84c8fdf99b4d577438df",78,"NA","reds",1,3,0,1025.95499996096
"557d84c8fdf99b4d577438df",79,"NA","yellows",5,7,0,849.080000072718
"557d84c8fdf99b4d577438df",80,"NA","reds",19,17,1,1313.31000011414
"557d84c8fdf99b4d577438df",81,"NA","reds",12,10,1,1014.04500007629
"557d84c8fdf99b4d577438df",82,"NA","reds",14,16,1,1788.44000026584
"557d84c8fdf99b4d577438df",83,"NA","reds",14,12,1,624.529999680817
"557d84c8fdf99b4d577438df",84,"NA","yellows",16,14,1,913.63999992609
"557d84c8fdf99b4d577438df",85,"NA","yellows",18,16,1,582.094999961555
"557d84c8fdf99b4d577438df",86,"NA","blues",14,12,1,754.604999907315
"557d84c8fdf99b4d577438df",87,"NA","blues",13,15,0,859.75999943912
"557d84c8fdf99b4d577438df",88,"NA","blues",6,4,0,1025.63999965787
"557d84c8fdf99b4d577438df",89,"NA","blues",9,7,1,1526.0700006038
"557d84c8fdf99b4d577438df",90,"NA","blues",8,10,1,1282.51000028104
"557d84c8fdf99b4d577438df",91,"NA","blues",6,4,1,1061.30500044674
"557d84c8fdf99b4d577438df",92,"NA","yellows",3,1,1,1788.39999996126
"557d84c8fdf99b4d577438df",93,"NA","browns",11,9,1,852.584999985993
"557d84c8fdf99b4d577438df",94,"NA","reds",13,15,1,701.310000382364
"557d84c8fdf99b4d577438df",95,"NA","blues",12,14,1,2030.66000062972
"557d84c8fdf99b4d577438df",96,"NA","browns",3,5,1,1262.91000004858
"557d84c8fdf99b4d577438df",97,"NA","blues",12,10,1,879.959999583662
"557d84c8fdf99b4d577438df",98,"NA","blues",10,8,1,1558.7650006637
"557d84c8fdf99b4d577438df",99,"NA","reds",17,19,0,2803.32000087947
"557d84c8fdf99b4d577438df",100,"NA","reds",15,17,1,876.159999519587
"557d84c8fdf99b4d577438df",101,"NA","yellows",4,6,1,902.245000004768
"557d84c8fdf99b4d577438df",102,"NA","browns",15,13,1,978.559999726713
"557d84c8fdf99b4d577438df",103,"NA","browns",18,16,1,720.955000258982
"557d84c8fdf99b4d577438df",104,"NA","browns",12,14,1,1076.57499983907
"557d84c8fdf99b4d577438df",106,"NA","blues",19,17,1,699.005000293255
"557d84c8fdf99b4d577438df",107,"NA","blues",4,2,1,875.685000792146
"557d84c8fdf99b4d577438df",108,"NA","browns",1,3,0,1300.73999986053
"557d84c8fdf99b4d577438df",109,"NA","yellows",15,17,0,705.764999613166
"557d84c8fdf99b4d577438df",110,"NA","reds",13,11,1,771.274999715388
"557d84c8fdf99b4d577438df",111,"NA","blues",11,13,0,1406.15999978036
"557d84c8fdf99b4d577438df",112,"NA","browns",17,19,0,687.429999932647
"557d84c8fdf99b4d577438df",113,"NA","blues",5,3,1,1293.92000008374
"557d84c8fdf99b4d577438df",114,"NA","yellows",12,10,1,1033.91000069678
"557d84c8fdf99b4d577438df",115,"NA","yellows",17,15,1,894.570000469685
"557d84c8fdf99b4d577438df",116,"NA","blues",18,16,1,1082.80999958515
"557d84c8fdf99b4d577438df",117,"NA","reds",20,18,1,1538.3550003171
"557d84c8fdf99b4d577438df",118,"NA","reds",8,6,1,911.569999530911
"557d84c8fdf99b4d577438df",119,"NA","blues",10,8,1,612.495000474155
"557d84c8fdf99b4d577438df",120,"NA","yellows",15,13,1,1098.71499985456
"557d84c8fdf99b4d577438df",121,"NA","browns",8,6,1,834.409999661148
"557d84c8fdf99b4d577438df",122,"NA","yellows",14,16,1,940.740000456572
"557d84c8fdf99b4d577438df",123,"NA","blues",8,6,1,894.679999910295
"557d84c8fdf99b4d577438df",124,"NA","blues",2,4,1,2630.795000121
"557d84c8fdf99b4d577438df",125,"NA","browns",13,11,1,2300.76000001281
"557d84c8fdf99b4d577438df",126,"NA","browns",9,11,0,1411.7499999702
"557d84c8fdf99b4d577438df",127,"NA","browns",20,18,1,1596.58999927342
"557d84c8fdf99b4d577438df",128,"NA","browns",16,18,1,4161.96000017226
"557d84c8fdf99b4d577438df",129,"NA","browns",4,2,1,1871.07999995351
"557d84c8fdf99b4d577438df",130,"NA","browns",11,13,0,1097.74000011384
"557d84c8fdf99b4d577438df",131,"NA","reds",16,18,0,3159.95999984443
"557d84c8fdf99b4d577438df",132,"NA","blues",7,9,1,2713.30999955535
"557d84c8fdf99b4d577438df",133,"NA","yellows",10,12,0,2088.6749997735
"557d84c8fdf99b4d577438df",134,"NA","yellows",3,1,0,2303.98999992758
"557d84c8fdf99b4d577438df",135,"NA","reds",7,5,1,1023.79000000656
"557d84c8fdf99b4d577438df",136,"NA","reds",17,15,1,874.544999562204
"557d84c8fdf99b4d577438df",137,"NA","browns",3,1,1,1477.19500027597
"557d84c8fdf99b4d577438df",138,"NA","reds",12,14,1,796.415000222623
"557d84c8fdf99b4d577438df",139,"NA","blues",9,11,1,1372.32000008225
"557d84c8fdf99b4d577438df",140,"NA","browns",8,10,0,987.424999475479
"557d84c8fdf99b4d577438df",141,"NA","blues",8,6,1,1335.04499960691
"557d84c8fdf99b4d577438df",142,"NA","yellows",17,19,0,832.700000144541
"557d84c8fdf99b4d577438df",143,"NA","yellows",2,4,0,937.56499979645
"557d84c8fdf99b4d577438df",144,"NA","browns",16,14,1,2510.9999999404
"557d84c8fdf99b4d577438df",145,"NA","browns",10,12,1,837.414999492466
"557d84c8fdf99b4d577438df",146,"NA","reds",9,7,1,760.320000350475
"557d84c8fdf99b4d577438df",147,"NA","yellows",16,18,1,768.790000118315
"557d84c8fdf99b4d577438df",148,"NA","yellows",9,11,1,787.209999747574
"557d84c8fdf99b4d577438df",149,"NA","blues",11,13,1,1146.64999954402
"557d84c8fdf99b4d577438df",150,"NA","blues",9,7,1,768.535000272095
"557d84c8fdf99b4d577438df",151,"NA","browns",4,2,1,947.405000217259
"557d84c8fdf99b4d577438df",152,"NA","yellows",15,13,1,941.080000251532
"557d84c8fdf99b4d577438df",153,"NA","yellows",12,14,0,1056.54000025243
"557d84c8fdf99b4d577438df",154,"NA","blues",18,16,0,2067.47500039637
"557d84c8fdf99b4d577438df",155,"NA","browns",18,20,0,707.094999961555
"557d84c8fdf99b4d577438df",157,"NA","browns",20,18,1,876.225000247359
"557d84c8fdf99b4d577438df",158,"NA","browns",12,14,1,907.689999789
"557d84c8fdf99b4d577438df",159,"NA","reds",8,6,1,730.609999969602
"557d84c8fdf99b4d577438df",160,"NA","yellows",5,7,1,881.465000100434
"557d84c8fdf99b4d577438df",161,"NA","yellows",14,12,1,697.564999572933
"557d84c8fdf99b4d577438df",162,"NA","yellows",9,7,0,862.139999866486
"557d84c8fdf99b4d577438df",163,"NA","yellows",16,18,0,658.894999884069
"557d84c8fdf99b4d577438df",164,"NA","yellows",3,5,1,1176.16499960423
"557d84c8fdf99b4d577438df",165,"NA","browns",6,4,1,653.324999846518
"557d84c8fdf99b4d577438df",166,"NA","blues",8,10,1,778.850000351667
"557d84c8fdf99b4d577438df",167,"NA","blues",15,17,1,956.185000017285
"557d84c8fdf99b4d577438df",168,"NA","browns",10,8,1,666.149999946356
"557d84c8fdf99b4d577438df",169,"NA","blues",12,14,1,774.295000359416
"557d84c8fdf99b4d577438df",170,"NA","reds",15,17,1,878.390000201762
"557d84c8fdf99b4d577438df",171,"NA","browns",19,17,1,1126.45999994129
"557d84c8fdf99b4d577438df",172,"NA","browns",14,12,1,643.190000206232
"557d84c8fdf99b4d577438df",173,"NA","reds",12,10,1,807.219999842346
"557d84c8fdf99b4d577438df",174,"NA","reds",15,13,1,695.770000107586
"557d84c8fdf99b4d577438df",175,"NA","reds",2,4,1,3336.72500029206
"557d84c8fdf99b4d577438df",176,"NA","reds",9,11,1,1129.40999958664
"557d84c8fdf99b4d577438df",177,"NA","reds",14,12,1,735.58499943465
"557d84c8fdf99b4d577438df",178,"NA","yellows",4,6,1,1690.25499932468
"557d84c8fdf99b4d577438df",179,"NA","reds",4,2,1,911.874999292195
"557d84c8fdf99b4d577438df",180,"NA","yellows",6,8,0,1106.56000021845
"557d84c8fdf99b4d577438df",181,"NA","reds",18,20,1,1143.76499969512
"557d84c8fdf99b4d577438df",182,"NA","reds",14,16,1,800.420000217855
"557d84c8fdf99b4d577438df",183,"NA","yellows",13,15,0,1348.6950006336
"557d84c8fdf99b4d577438df",184,"NA","browns",6,4,1,1446.1850002408
"557d84c8fdf99b4d577438df",185,"NA","reds",6,4,1,781.510000117123
"557d84c8fdf99b4d577438df",186,"NA","blues",14,12,1,1093.93500071019
"557d84c8fdf99b4d577438df",187,"NA","blues",10,12,1,1093.99999957532
"557d84c8fdf99b4d577438df",188,"NA","reds",17,15,1,841.874999925494
"557d84c8fdf99b4d577438df",189,"NA","blues",4,6,1,1421.19500041008
"557d84c8fdf99b4d577438df",190,"NA","reds",16,18,0,1230.82000017166
"557d84c8fdf99b4d577438df",191,"NA","browns",18,20,1,1403.01999915391
"557d84c8fdf99b4d577438df",192,"NA","blues",4,6,1,988.520000129938
"557d84c8fdf99b4d577438df",193,"NA","yellows",17,19,0,779.515000060201
"557d84c8fdf99b4d577438df",194,"NA","yellows",5,3,0,1406.27999976277
"557d84c8fdf99b4d577438df",195,"NA","yellows",14,12,1,993.324999697506
"557d84c8fdf99b4d577438df",196,"NA","yellows",11,13,1,984.984999522567
"557d84c8fdf99b4d577438df",197,"NA","browns",14,12,1,1177.17500030994
"557d84c8fdf99b4d577438df",198,"NA","reds",2,4,1,1162.99999970943
"557d84c8fdf99b4d577438df",199,"NA","reds",13,11,1,1059.87500026822
"557d84c8fdf99b4d577438df",200,"NA","browns",8,6,1,1870.02999987453
"557d84c8fdf99b4d577438df",201,"NA","reds",5,7,1,1106.02500010282
"557d84c8fdf99b4d577438df",202,"NA","blues",17,15,1,1227.25000046194
"557d84c8fdf99b4d577438df",203,"NA","blues",11,9,1,955.040000379086
"557d84c8fdf99b4d577438df",204,"NA","blues",7,9,0,713.124999776483
"557d84c8fdf99b4d577438df",205,"NA","yellows",7,5,1,921.83499969542
"557d84c8fdf99b4d577438df",206,"NA","yellows",4,2,1,605.355000123382
"557d84c8fdf99b4d577438df",208,"NA","browns",15,17,1,801.669999957085
"557d84c8fdf99b4d577438df",209,"NA","browns",3,1,1,1310.29499974102
"557d84c8fdf99b4d577438df",210,"NA","reds",6,8,1,984.830000437796
"557d84c8fdf99b4d577438df",211,"NA","yellows",10,12,1,2802.44999937713
"557d84c8fdf99b4d577438df",212,"NA","blues",16,18,1,839.389999397099
"557d84c8fdf99b4d577438df",213,"NA","blues",15,13,1,888.109999708831
"557d84c8fdf99b4d577438df",214,"NA","reds",3,1,0,1060.7700003311
"557d84c8fdf99b4d577438df",215,"NA","reds",10,8,1,922.810000367463
"557d84c8fdf99b4d577438df",216,"NA","blues",15,13,1,706.579999998212
"557d84c8fdf99b4d577438df",217,"NA","browns",13,15,1,871.679999865592
"557d84c8fdf99b4d577438df",218,"NA","reds",1,3,1,1086.06499992311
"557d84c8fdf99b4d577438df",219,"NA","browns",13,15,0,756.380000151694
"557d84c8fdf99b4d577438df",220,"NA","reds",4,6,0,971.479999832809
"557d84c8fdf99b4d577438df",221,"NA","blues",5,7,1,806.619999930263
"557d84c8fdf99b4d577438df",222,"NA","browns",10,12,1,791.950000450015
"557d84c8fdf99b4d577438df",223,"NA","blues",6,8,1,720.230000093579
"557d84c8fdf99b4d577438df",224,"NA","browns",17,15,1,702.155000530183
"557d84c8fdf99b4d577438df",225,"NA","browns",7,9,0,1300.39000045508
"557d84c8fdf99b4d577438df",226,"NA","blues",6,8,1,353.199999779463
"557d84c8fdf99b4d577438df",227,"NA","reds",9,11,1,853.525000624359
"557d84c8fdf99b4d577438df",228,"NA","yellows",20,18,1,740.375000052154
"557d84c8fdf99b4d577438df",229,"NA","blues",18,20,1,788.270000368357
"557d84c8fdf99b4d577438df",230,"NA","reds",3,5,1,1243.6400000006
"557d84c8fdf99b4d577438df",231,"NA","browns",4,6,0,804.81999926269
"557d84c8fdf99b4d577438df",232,"NA","blues",13,11,1,676.214999519289
"557d84c8fdf99b4d577438df",233,"NA","yellows",20,18,1,696.240000426769
"557d84c8fdf99b4d577438df",234,"NA","reds",10,12,1,1712.53500040621
"557d84c8fdf99b4d577438df",235,"NA","browns",10,8,1,691.935000009835
"557d84c8fdf99b4d577438df",236,"NA","yellows",19,17,0,665.280000306666
"557d84c8fdf99b4d577438df",237,"NA","blues",3,5,0,666.009999811649
"557d84c8fdf99b4d577438df",238,"NA","yellows",7,9,1,1603.84499933571
"557d84c8fdf99b4d577438df",239,"NA","yellows",3,5,0,1106.15499969572
"557d84c8fdf99b4d577438df",240,"NA","blues",11,9,1,765.39499964565
"557d84c8fdf99b4d577438df",241,"NA","reds",6,4,1,817.974999547005
"557d84c8fdf99b4d577438df",242,"NA","browns",7,9,0,734.159999527037
"557d84c8fdf99b4d577438df",243,"NA","yellows",1,3,0,1112.53500077873
"557d84c8fdf99b4d577438df",244,"NA","blues",17,19,1,1114.73000049591
"557d84c8fdf99b4d577438df",245,"NA","blues",5,7,0,1698.70499987155
"557d84c8fdf99b4d577438df",246,"NA","yellows",17,15,1,840.234999544919
"557d84c8fdf99b4d577438df",247,"NA","blues",17,19,0,779.885000549257
"557d84c8fdf99b4d577438df",248,"NA","browns",12,10,1,650.159999728203
"557d84c8fdf99b4d577438df",249,"NA","reds",11,9,1,797.10500035435
"557d84c8fdf99b4d577438df",250,"NA","browns",17,15,0,1208.87499954551
"557d84c8fdf99b4d577438df",251,"NA","yellows",10,8,1,1004.89499978721
"557d84c8fdf99b4d577438df",252,"NA","browns",9,7,1,1047.54499997944
"557d84c8fdf99b4d577438df",253,"NA","browns",3,5,1,1130.00999949872
"557d84c8fdf99b4d577438df",254,"NA","reds",6,8,0,1019.74500063807
"557d84c8fdf99b4d577438df",255,"NA","yellows",4,2,0,970.410000532866
"557d84c8fdf99b4d577438df",256,"NA","browns",2,4,1,773.729999549687
"557d84c8fdf99b4d577438df",257,"NA","yellows",8,10,1,870.075000450015
"557d84c8fdf99b4d577438df",259,"NA","yellows",12,10,1,708.349999971688
"557d84c8fdf99b4d577438df",260,"NA","browns",2,4,0,885.524999350309
"557d84c8fdf99b4d577438df",261,"NA","browns",16,14,0,683.450000360608
"557d84c8fdf99b4d577438df",262,"NA","yellows",1,3,0,655.91499954462
"557d84c8fdf99b4d577438df",263,"NA","blues",16,14,1,600.530000403523
"557d84c8fdf99b4d577438df",264,"NA","yellows",6,8,0,520.610000006855
"557d84c8fdf99b4d577438df",265,"NA","browns",18,16,0,541.505000554025
"557d84c8fdf99b4d577438df",266,"NA","yellows",11,9,0,788.715000264347
"557d84c8fdf99b4d577438df",267,"NA","blues",13,11,0,374.835000373423
"557d84c8fdf99b4d577438df",268,"NA","blues",10,12,0,502.625000663102
"557d84c8fdf99b4d577438df",269,"NA","yellows",18,20,0,769.629999995232
"557d84c8fdf99b4d577438df",270,"NA","browns",5,7,0,911.809999495745
"557d84c8fdf99b4d577438df",271,"NA","blues",15,17,0,551.404999569058
"557d84c8fdf99b4d577438df",272,"NA","browns",11,9,1,637.860000133514
"557d84c8fdf99b4d577438df",273,"NA","yellows",7,9,0,662.364999763668
"557d84c8fdf99b4d577438df",274,"NA","reds",10,8,1,722.884999588132
"557d84c8fdf99b4d577438df",275,"NA","yellows",11,9,1,587.395000271499
"557d84c8fdf99b4d577438df",276,"NA","yellows",11,13,0,368.994999676943
"557d84c8fdf99b4d577438df",277,"NA","browns",4,6,0,698.964999988675
"557d84c8fdf99b4d577438df",278,"NA","reds",16,14,1,643.524999730289
"557d84c8fdf99b4d577438df",279,"NA","yellows",8,6,1,930.705000646412
"557d84c8fdf99b4d577438df",280,"NA","reds",8,10,1,548.495000228286
"557d84c8fdf99b4d577438df",281,"NA","yellows",7,5,1,241.459999233484
"557d84c8fdf99b4d577438df",282,"NA","blues",12,10,0,583.905000239611
"557d84c8fdf99b4d577438df",283,"NA","reds",13,15,0,1307.59999994189
"557d84c8fdf99b4d577438df",284,"NA","yellows",13,11,0,720.10499984026
"557d84c8fdf99b4d577438df",285,"NA","browns",8,10,1,1170.50500027835
"557d84c8fdf99b4d577438df",286,"NA","yellows",19,17,1,881.45500048995
"557d84c8fdf99b4d577438df",287,"NA","reds",5,3,0,533.935000188649
"557d84c8fdf99b4d577438df",288,"NA","blues",14,16,1,545.340000651777
"557d84c8fdf99b4d577438df",289,"NA","reds",4,6,1,414.35500048101
"557d84c8fdf99b4d577438df",290,"NA","reds",18,20,0,809.820000082254
"557d84c8fdf99b4d577438df",291,"NA","blues",1,3,0,507.484999485314
"557d84c8fdf99b4d577438df",292,"NA","reds",12,14,0,392.575000412762
"557d84c8fdf99b4d577438df",293,"NA","blues",3,1,0,366.960000246763
"557d84c8fdf99b4d577438df",294,"NA","yellows",15,17,0,361.779999919236
"557d84c8fdf99b4d577438df",295,"NA","reds",15,13,0,451.475000008941
"557d84c8fdf99b4d577438df",296,"NA","reds",3,1,1,343.255000188947
"557d84c8fdf99b4d577438df",297,"NA","browns",5,3,1,625.84500014782
"5588d358fdf99b304ee5674f",5,"NA","yellows",15,17,0,1519.37
"5588d358fdf99b304ee5674f",6,"NA","reds",16,18,0,1206.685
"5588d358fdf99b304ee5674f",7,"NA","browns",6,8,0,1258.64000000001
"5588d358fdf99b304ee5674f",8,"NA","yellows",16,14,1,989.274999999994
"5588d358fdf99b304ee5674f",9,"NA","blues",2,4,0,927.364999999991
"5588d358fdf99b304ee5674f",10,"NA","yellows",18,20,0,1475.61500000002
"5588d358fdf99b304ee5674f",11,"NA","reds",5,7,0,1030.405
"5588d358fdf99b304ee5674f",12,"NA","reds",6,4,1,946.309999999998
"5588d358fdf99b304ee5674f",13,"NA","browns",11,13,0,994.325000000012
"5588d358fdf99b304ee5674f",14,"NA","blues",10,12,0,1179.25
"5588d358fdf99b304ee5674f",15,"NA","yellows",4,6,0,1311.16
"5588d358fdf99b304ee5674f",16,"NA","browns",8,10,0,983.265000000014
"5588d358fdf99b304ee5674f",17,"NA","browns",17,19,0,1023.125
"5588d358fdf99b304ee5674f",18,"NA","blues",7,9,0,808.975000000006
"5588d358fdf99b304ee5674f",19,"NA","reds",10,8,1,817.910000000003
"5588d358fdf99b304ee5674f",20,"NA","blues",13,11,1,796.079999999987
"5588d358fdf99b304ee5674f",21,"NA","browns",16,18,0,840.76999999999
"5588d358fdf99b304ee5674f",22,"NA","blues",3,1,1,760.729999999981
"5588d358fdf99b304ee5674f",23,"NA","blues",8,10,0,742.964999999997
"5588d358fdf99b304ee5674f",24,"NA","yellows",12,14,0,829.744999999995
"5588d358fdf99b304ee5674f",25,"NA","blues",4,6,0,779.820000000007
"5588d358fdf99b304ee5674f",26,"NA","reds",19,17,0,1199.245
"5588d358fdf99b304ee5674f",27,"NA","reds",4,2,1,1057.36000000002
"5588d358fdf99b304ee5674f",28,"NA","browns",9,11,0,795.100000000006
"5588d358fdf99b304ee5674f",29,"NA","reds",17,19,0,788.135000000009
"5588d358fdf99b304ee5674f",30,"NA","blues",11,13,0,822.505000000005
"5588d358fdf99b304ee5674f",31,"NA","reds",11,13,0,757.035000000003
"5588d358fdf99b304ee5674f",32,"NA","blues",1,3,0,1085.41
"5588d358fdf99b304ee5674f",33,"NA","browns",1,3,0,1256.10000000001
"5588d358fdf99b304ee5674f",34,"NA","blues",1,3,0,864.929999999993
"5588d358fdf99b304ee5674f",35,"NA","browns",16,14,1,810.715000000026
"5588d358fdf99b304ee5674f",36,"NA","reds",6,8,0,679.789999999979
"5588d358fdf99b304ee5674f",37,"NA","blues",14,16,0,1379.72
"5588d358fdf99b304ee5674f",38,"NA","reds",17,19,0,1304.505
"5588d358fdf99b304ee5674f",39,"NA","reds",4,6,0,1259.02499999999
"5588d358fdf99b304ee5674f",40,"NA","blues",10,8,1,864.904999999999
"5588d358fdf99b304ee5674f",41,"NA","browns",12,14,0,892.174999999988
"5588d358fdf99b304ee5674f",42,"NA","yellows",7,9,0,781.345000000001
"5588d358fdf99b304ee5674f",43,"NA","yellows",13,11,1,798.595000000001
"5588d358fdf99b304ee5674f",44,"NA","blues",18,16,1,1264.75
"5588d358fdf99b304ee5674f",45,"NA","reds",16,18,0,1235.51500000001
"5588d358fdf99b304ee5674f",46,"NA","blues",3,1,1,649.820000000007
"5588d358fdf99b304ee5674f",47,"NA","yellows",14,16,0,1374.91999999998
"5588d358fdf99b304ee5674f",48,"NA","browns",15,13,1,1323.24000000002
"5588d358fdf99b304ee5674f",49,"NA","blues",10,8,1,703.179999999993
"5588d358fdf99b304ee5674f",50,"NA","reds",7,9,0,723.325000000012
"5588d358fdf99b304ee5674f",51,"NA","browns",4,6,0,1845.84
"5588d358fdf99b304ee5674f",52,"NA","yellows",10,8,1,899.525000000023
"5588d358fdf99b304ee5674f",53,"NA","reds",6,4,1,752.510000000009
"5588d358fdf99b304ee5674f",55,"NA","yellows",4,2,1,1184.38
"5588d358fdf99b304ee5674f",56,"NA","browns",12,14,0,799.59500000003
"5588d358fdf99b304ee5674f",57,"NA","blues",7,5,1,650.535000000033
"5588d358fdf99b304ee5674f",58,"NA","reds",14,16,0,796.840000000026
"5588d358fdf99b304ee5674f",59,"NA","yellows",5,3,1,772.799999999988
"5588d358fdf99b304ee5674f",60,"NA","reds",9,11,0,1128.02000000002
"5588d358fdf99b304ee5674f",61,"NA","yellows",6,8,0,845.130000000005
"5588d358fdf99b304ee5674f",62,"NA","reds",13,11,1,713.604999999981
"5588d358fdf99b304ee5674f",63,"NA","blues",11,9,1,785.075000000012
"5588d358fdf99b304ee5674f",64,"NA","reds",8,10,0,909.130000000005
"5588d358fdf99b304ee5674f",65,"NA","reds",5,3,1,944.239999999991
"5588d358fdf99b304ee5674f",66,"NA","browns",6,8,0,714.270000000019
"5588d358fdf99b304ee5674f",67,"NA","blues",5,3,1,716.964999999967
"5588d358fdf99b304ee5674f",68,"NA","reds",18,20,1,775.585000000021
"5588d358fdf99b304ee5674f",69,"NA","blues",17,19,1,1334.94500000001
"5588d358fdf99b304ee5674f",70,"NA","reds",20,18,1,1180.57500000001
"5588d358fdf99b304ee5674f",71,"NA","browns",8,6,1,661.75
"5588d358fdf99b304ee5674f",72,"NA","yellows",20,18,1,643.5
"5588d358fdf99b304ee5674f",73,"NA","yellows",3,1,0,732.304999999993
"5588d358fdf99b304ee5674f",74,"NA","browns",6,4,1,567.114999999991
"5588d358fdf99b304ee5674f",75,"NA","yellows",15,13,1,554.604999999981
"5588d358fdf99b304ee5674f",76,"NA","yellows",11,13,0,1463.00999999995
"5588d358fdf99b304ee5674f",77,"NA","yellows",13,15,0,906.200000000012
"5588d358fdf99b304ee5674f",78,"NA","reds",2,4,0,703.739999999991
"5588d358fdf99b304ee5674f",79,"NA","browns",17,15,1,784.330000000016
"5588d358fdf99b304ee5674f",80,"NA","browns",11,9,1,622.020000000019
"5588d358fdf99b304ee5674f",81,"NA","reds",16,14,1,853.255000000005
"5588d358fdf99b304ee5674f",82,"NA","blues",8,6,1,540.534999999974
"5588d358fdf99b304ee5674f",83,"NA","blues",5,3,1,591.010000000009
"5588d358fdf99b304ee5674f",84,"NA","blues",16,14,1,604.085000000021
"5588d358fdf99b304ee5674f",85,"NA","blues",14,16,0,667.260000000009
"5588d358fdf99b304ee5674f",86,"NA","browns",14,16,0,598.809999999998
"5588d358fdf99b304ee5674f",87,"NA","reds",3,5,0,628.804999999993
"5588d358fdf99b304ee5674f",88,"NA","browns",7,9,0,619.695000000007
"5588d358fdf99b304ee5674f",89,"NA","blues",7,9,0,839.23000000004
"5588d358fdf99b304ee5674f",90,"NA","reds",19,17,0,1032.33999999997
"5588d358fdf99b304ee5674f",91,"NA","browns",18,20,0,772.940000000002
"5588d358fdf99b304ee5674f",92,"NA","browns",13,15,0,674.899999999965
"5588d358fdf99b304ee5674f",93,"NA","reds",12,10,1,838.919999999984
"5588d358fdf99b304ee5674f",94,"NA","browns",4,6,0,1213.09000000003
"5588d358fdf99b304ee5674f",95,"NA","yellows",17,19,1,655.929999999993
"5588d358fdf99b304ee5674f",96,"NA","browns",7,5,1,845.674999999988
"5588d358fdf99b304ee5674f",97,"NA","yellows",14,16,0,765.614999999991
"5588d358fdf99b304ee5674f",98,"NA","yellows",10,12,1,887.584999999963
"5588d358fdf99b304ee5674f",99,"NA","browns",8,6,1,824.524999999965
"5588d358fdf99b304ee5674f",100,"NA","reds",14,12,1,642.534999999974
"5588d358fdf99b304ee5674f",101,"NA","browns",16,18,0,716.625
"5588d358fdf99b304ee5674f",102,"NA","browns",15,17,0,611.950000000012
"5588d358fdf99b304ee5674f",103,"NA","yellows",5,7,0,968.494999999995
"5588d358fdf99b304ee5674f",104,"NA","reds",9,7,1,683.889999999956
"5588d358fdf99b304ee5674f",106,"NA","browns",5,3,1,792.589999999967
"5588d358fdf99b304ee5674f",107,"NA","blues",9,7,1,519.620000000054
"5588d358fdf99b304ee5674f",108,"NA","yellows",20,18,1,784.464999999967
"5588d358fdf99b304ee5674f",109,"NA","blues",14,12,1,746.64499999996
"5588d358fdf99b304ee5674f",110,"NA","browns",9,11,0,922.475000000035
"5588d358fdf99b304ee5674f",111,"NA","reds",12,14,0,785.829999999958
"5588d358fdf99b304ee5674f",112,"NA","yellows",8,6,1,593.045000000042
"5588d358fdf99b304ee5674f",113,"NA","browns",3,5,0,951.39499999996
"5588d358fdf99b304ee5674f",114,"NA","yellows",7,5,1,713.469999999972
"5588d358fdf99b304ee5674f",115,"NA","yellows",17,19,0,560.869999999995
"5588d358fdf99b304ee5674f",116,"NA","yellows",17,15,1,629.794999999984
"5588d358fdf99b304ee5674f",117,"NA","yellows",16,18,0,740.474999999977
"5588d358fdf99b304ee5674f",118,"NA","browns",18,16,1,573.23000000004
"5588d358fdf99b304ee5674f",119,"NA","blues",3,5,0,577.239999999991
"5588d358fdf99b304ee5674f",120,"NA","blues",10,12,0,559.590000000026
"5588d358fdf99b304ee5674f",121,"NA","blues",15,17,0,507.924999999988
"5588d358fdf99b304ee5674f",122,"NA","browns",10,8,1,582.059999999998
"5588d358fdf99b304ee5674f",123,"NA","reds",13,11,1,545.440000000002
"5588d358fdf99b304ee5674f",124,"NA","reds",15,13,1,490.850000000035
"5588d358fdf99b304ee5674f",125,"NA","reds",8,6,1,692.205000000016
"5588d358fdf99b304ee5674f",126,"NA","reds",8,10,0,482.910000000033
"5588d358fdf99b304ee5674f",127,"NA","reds",15,17,0,963.215000000026
"5588d358fdf99b304ee5674f",128,"NA","reds",7,9,0,576.335000000021
"5588d358fdf99b304ee5674f",129,"NA","browns",13,11,1,673.235000000044
"5588d358fdf99b304ee5674f",130,"NA","browns",3,1,1,664.160000000033
"5588d358fdf99b304ee5674f",131,"NA","yellows",13,15,1,572.835000000021
"5588d358fdf99b304ee5674f",132,"NA","blues",12,14,0,750.014999999956
"5588d358fdf99b304ee5674f",133,"NA","browns",3,1,1,611.76999999996
"5588d358fdf99b304ee5674f",134,"NA","browns",5,7,0,689.974999999977
"5588d358fdf99b304ee5674f",135,"NA","blues",17,15,1,577.830000000016
"5588d358fdf99b304ee5674f",136,"NA","yellows",4,2,1,1024.58499999996
"5588d358fdf99b304ee5674f",137,"NA","blues",14,12,1,584.984999999986
"5588d358fdf99b304ee5674f",138,"NA","browns",19,17,1,531.934999999998
"5588d358fdf99b304ee5674f",139,"NA","yellows",12,10,1,649.174999999988
"5588d358fdf99b304ee5674f",140,"NA","blues",18,20,0,948.114999999991
"5588d358fdf99b304ee5674f",141,"NA","browns",8,10,0,835.695000000007
"5588d358fdf99b304ee5674f",142,"NA","blues",13,15,0,595.670000000042
"5588d358fdf99b304ee5674f",143,"NA","blues",12,10,0,487.729999999981
"5588d358fdf99b304ee5674f",144,"NA","blues",18,20,0,1037.70500000002
"5588d358fdf99b304ee5674f",145,"NA","yellows",10,8,1,802.25
"5588d358fdf99b304ee5674f",146,"NA","browns",14,12,1,552.954999999958
"5588d358fdf99b304ee5674f",147,"NA","browns",11,13,0,609.364999999991
"5588d358fdf99b304ee5674f",148,"NA","blues",15,13,0,857.645000000019
"5588d358fdf99b304ee5674f",149,"NA","browns",4,2,1,740.945000000007
"5588d358fdf99b304ee5674f",150,"NA","yellows",14,12,1,795.275000000023
"5588d358fdf99b304ee5674f",151,"NA","yellows",18,16,1,663
"5588d358fdf99b304ee5674f",152,"NA","reds",16,14,1,681.484999999986
"5588d358fdf99b304ee5674f",153,"NA","browns",10,12,0,723.979999999981
"5588d358fdf99b304ee5674f",154,"NA","browns",13,15,0,815.734999999986
"5588d358fdf99b304ee5674f",155,"NA","reds",11,13,0,732.625
"5588d358fdf99b304ee5674f",157,"NA","yellows",6,4,1,1094.08999999997
"5588d358fdf99b304ee5674f",158,"NA","reds",18,20,0,1259.47500000003
"5588d358fdf99b304ee5674f",159,"NA","browns",16,14,1,524.479999999981
"5588d358fdf99b304ee5674f",160,"NA","reds",13,15,0,697.830000000016
"5588d358fdf99b304ee5674f",161,"NA","blues",12,10,1,604.289999999979
"5588d358fdf99b304ee5674f",162,"NA","yellows",8,10,0,590.98000000004
"5588d358fdf99b304ee5674f",163,"NA","blues",11,13,0,546.979999999981
"5588d358fdf99b304ee5674f",164,"NA","yellows",3,5,0,507.140000000014
"5588d358fdf99b304ee5674f",165,"NA","reds",18,16,1,1052.23999999999
"5588d358fdf99b304ee5674f",166,"NA","browns",9,7,1,633.325000000012
"5588d358fdf99b304ee5674f",167,"NA","blues",15,13,1,695.915000000037
"5588d358fdf99b304ee5674f",168,"NA","browns",11,9,1,512.085000000021
"5588d358fdf99b304ee5674f",169,"NA","reds",4,6,0,652.875
"5588d358fdf99b304ee5674f",170,"NA","yellows",8,6,1,706.049999999988
"5588d358fdf99b304ee5674f",171,"NA","blues",9,11,0,520.169999999984
"5588d358fdf99b304ee5674f",172,"NA","reds",15,13,1,885.830000000016
"5588d358fdf99b304ee5674f",173,"NA","blues",19,17,1,754.395000000019
"5588d358fdf99b304ee5674f",174,"NA","reds",9,11,0,737.329999999958
"5588d358fdf99b304ee5674f",175,"NA","browns",9,7,1,583.739999999991
"5588d358fdf99b304ee5674f",176,"NA","browns",2,4,0,614.159999999974
"5588d358fdf99b304ee5674f",177,"NA","browns",7,5,1,581.165000000037
"5588d358fdf99b304ee5674f",178,"NA","yellows",2,4,0,740.265000000014
"5588d358fdf99b304ee5674f",179,"NA","yellows",19,17,1,581.494999999995
"5588d358fdf99b304ee5674f",180,"NA","yellows",3,5,0,716.164999999979
"5588d358fdf99b304ee5674f",181,"NA","reds",10,12,0,747.075000000012
"5588d358fdf99b304ee5674f",182,"NA","blues",13,15,0,901.275000000023
"5588d358fdf99b304ee5674f",183,"NA","reds",9,7,1,839.089999999967
"5588d358fdf99b304ee5674f",184,"NA","blues",17,19,0,824.184999999998
"5588d358fdf99b304ee5674f",185,"NA","browns",14,16,0,715.530000000028
"5588d358fdf99b304ee5674f",186,"NA","reds",12,10,1,696.379999999946
"5588d358fdf99b304ee5674f",187,"NA","reds",18,16,1,741.229999999981
"5588d358fdf99b304ee5674f",188,"NA","yellows",1,3,0,1242.69999999995
"5588d358fdf99b304ee5674f",189,"NA","yellows",5,7,0,1179.81999999995
"5588d358fdf99b304ee5674f",190,"NA","yellows",3,1,1,806.585000000079
"5588d358fdf99b304ee5674f",191,"NA","blues",6,8,0,513.285000000033
"5588d358fdf99b304ee5674f",192,"NA","blues",9,7,1,626.090000000084
"5588d358fdf99b304ee5674f",193,"NA","browns",3,5,0,528.67499999993
"5588d358fdf99b304ee5674f",194,"NA","blues",5,7,0,469.734999999986
"5588d358fdf99b304ee5674f",195,"NA","yellows",7,9,0,1044.61500000011
"5588d358fdf99b304ee5674f",196,"NA","reds",10,8,1,685.835000000079
"5588d358fdf99b304ee5674f",197,"NA","yellows",7,5,1,879.604999999981
"5588d358fdf99b304ee5674f",198,"NA","yellows",11,9,1,766.474999999977
"5588d358fdf99b304ee5674f",199,"NA","browns",5,7,0,565.589999999967
"5588d358fdf99b304ee5674f",200,"NA","blues",17,15,1,523.025000000023
"5588d358fdf99b304ee5674f",201,"NA","browns",18,16,1,763.54999999993
"5588d358fdf99b304ee5674f",202,"NA","yellows",13,11,1,654.145000000019
"5588d358fdf99b304ee5674f",203,"NA","blues",19,17,0,581.229999999981
"5588d358fdf99b304ee5674f",204,"NA","blues",6,4,1,738.960000000079
"5588d358fdf99b304ee5674f",205,"NA","reds",3,1,1,647.005000000005
"5588d358fdf99b304ee5674f",206,"NA","reds",4,2,1,722.569999999949
"5588d358fdf99b304ee5674f",208,"NA","yellows",16,18,0,898.18499999994
"5588d358fdf99b304ee5674f",209,"NA","yellows",16,14,1,500.530000000028
"5588d358fdf99b304ee5674f",210,"NA","yellows",14,12,1,865.494999999995
"5588d358fdf99b304ee5674f",211,"NA","reds",6,8,0,708.599999999977
"5588d358fdf99b304ee5674f",212,"NA","yellows",12,14,0,1233.88500000001
"5588d358fdf99b304ee5674f",213,"NA","reds",14,16,0,1029.005
"5588d358fdf99b304ee5674f",214,"NA","reds",12,14,0,860.489999999991
"5588d358fdf99b304ee5674f",215,"NA","reds",5,3,1,942.780000000028
"5588d358fdf99b304ee5674f",216,"NA","yellows",18,16,1,853.675000000047
"5588d358fdf99b304ee5674f",217,"NA","blues",8,10,0,585.56500000006
"5588d358fdf99b304ee5674f",218,"NA","reds",20,18,0,1195.60499999998
"5588d358fdf99b304ee5674f",219,"NA","browns",18,20,0,803.255000000005
"5588d358fdf99b304ee5674f",220,"NA","blues",12,14,0,696.520000000019
"5588d358fdf99b304ee5674f",221,"NA","yellows",19,17,1,698.195000000065
"5588d358fdf99b304ee5674f",222,"NA","browns",20,18,1,881.494999999995
"5588d358fdf99b304ee5674f",223,"NA","blues",7,5,1,634.280000000028
"5588d358fdf99b304ee5674f",224,"NA","reds",17,15,1,652.919999999925
"5588d358fdf99b304ee5674f",225,"NA","yellows",2,4,0,899.865000000107
"5588d358fdf99b304ee5674f",226,"NA","blues",3,5,0,936.459999999963
"5588d358fdf99b304ee5674f",227,"NA","browns",6,4,1,625.54999999993
"5588d358fdf99b304ee5674f",228,"NA","reds",7,5,1,590.709999999963
"5588d358fdf99b304ee5674f",229,"NA","blues",13,11,1,637.019999999902
"5588d358fdf99b304ee5674f",230,"NA","blues",4,6,0,1075.93500000006
"5588d358fdf99b304ee5674f",231,"NA","yellows",9,11,0,640.194999999949
"5588d358fdf99b304ee5674f",232,"NA","blues",16,18,0,1212.67499999993
"5588d358fdf99b304ee5674f",233,"NA","reds",10,12,0,573.729999999981
"5588d358fdf99b304ee5674f",234,"NA","yellows",18,20,0,826.130000000005
"5588d358fdf99b304ee5674f",235,"NA","browns",5,3,1,675.344999999972
"5588d358fdf99b304ee5674f",236,"NA","blues",16,14,1,741.089999999967
"5588d358fdf99b304ee5674f",237,"NA","blues",4,2,1,962.32500000007
"5588d358fdf99b304ee5674f",238,"NA","yellows",9,11,0,694.630000000005
"5588d358fdf99b304ee5674f",239,"NA","yellows",4,6,0,701.945000000065
"5588d358fdf99b304ee5674f",240,"NA","reds",5,7,0,527.350000000093
"5588d358fdf99b304ee5674f",241,"NA","reds",15,17,0,1072.13
"5588d358fdf99b304ee5674f",242,"NA","reds",17,15,1,1054.17499999993
"5588d358fdf99b304ee5674f",243,"NA","blues",15,17,0,629.790000000037
"5588d358fdf99b304ee5674f",244,"NA","blues",11,9,1,1304.33000000007
"5588d358fdf99b304ee5674f",245,"NA","browns",10,8,1,786.210000000079
"5588d358fdf99b304ee5674f",246,"NA","blues",6,4,1,683.655000000028
"5588d358fdf99b304ee5674f",247,"NA","blues",5,7,0,719.709999999963
"5588d358fdf99b304ee5674f",248,"NA","browns",12,10,1,810.359999999986
"5588d358fdf99b304ee5674f",249,"NA","browns",12,10,1,990.445000000065
"5588d358fdf99b304ee5674f",250,"NA","browns",17,15,1,530.719999999972
"5588d358fdf99b304ee5674f",251,"NA","browns",2,4,0,631.489999999991
"5588d358fdf99b304ee5674f",252,"NA","yellows",11,9,1,619.19000000006
"5588d358fdf99b304ee5674f",253,"NA","reds",13,15,0,588.780000000028
"5588d358fdf99b304ee5674f",254,"NA","browns",19,17,1,538.395000000019
"5588d358fdf99b304ee5674f",255,"NA","reds",8,6,1,1086
"5588d358fdf99b304ee5674f",256,"NA","yellows",12,10,1,547.305000000051
"5588d358fdf99b304ee5674f",257,"NA","browns",14,12,1,505.834999999963
"5588d358fdf99b304ee5674f",259,"NA","yellows",6,4,1,845.395000000019
"5588d358fdf99b304ee5674f",260,"NA","yellows",15,17,0,1008.34499999997
"5588d358fdf99b304ee5674f",261,"NA","reds",11,9,1,654.050000000047
"5588d358fdf99b304ee5674f",262,"NA","blues",20,18,1,575.074999999953
"5588d358fdf99b304ee5674f",263,"NA","browns",17,19,0,668.535000000033
"5588d358fdf99b304ee5674f",264,"NA","yellows",10,12,0,707.119999999995
"5588d358fdf99b304ee5674f",265,"NA","blues",9,11,0,737.55999999994
"5588d358fdf99b304ee5674f",266,"NA","blues",2,4,0,681.594999999972
"5588d358fdf99b304ee5674f",267,"NA","browns",15,17,0,712.560000000056
"5588d358fdf99b304ee5674f",268,"NA","reds",11,9,1,581.349999999977
"5588d358fdf99b304ee5674f",269,"NA","blues",8,6,1,566.270000000019
"5588d358fdf99b304ee5674f",270,"NA","blues",20,18,0,604.95000000007
"5588d358fdf99b304ee5674f",271,"NA","reds",7,5,1,720.289999999921
"5588d358fdf99b304ee5674f",272,"NA","blues",4,2,1,553.994999999995
"5588d358fdf99b304ee5674f",273,"NA","blues",6,8,0,705.344999999972
"5588d358fdf99b304ee5674f",274,"NA","reds",3,5,0,810.189999999944
"5588d358fdf99b304ee5674f",275,"NA","reds",1,3,0,690.714999999967
"5588d358fdf99b304ee5674f",276,"NA","browns",7,9,0,644.670000000042
"5588d358fdf99b304ee5674f",277,"NA","reds",2,4,0,570.555000000051
"5588d358fdf99b304ee5674f",278,"NA","reds",1,3,0,612.814999999944
"5588d358fdf99b304ee5674f",279,"NA","browns",13,11,1,818.849999999977
"5588d358fdf99b304ee5674f",280,"NA","browns",20,18,1,667.789999999921
"5588d358fdf99b304ee5674f",281,"NA","yellows",15,13,1,701.824999999953
"5588d358fdf99b304ee5674f",282,"NA","browns",1,3,0,614.544999999925
"5588d358fdf99b304ee5674f",283,"NA","browns",4,2,1,531.255000000005
"5588d358fdf99b304ee5674f",284,"NA","yellows",1,3,0,870.959999999963
"5588d358fdf99b304ee5674f",285,"NA","blues",18,16,1,850.199999999953
"5588d358fdf99b304ee5674f",286,"NA","yellows",9,7,1,863.239999999991
"5588d358fdf99b304ee5674f",287,"NA","browns",15,13,1,1242.79999999993
"5588d358fdf99b304ee5674f",288,"NA","blues",16,18,0,1062.28500000003
"5588d358fdf99b304ee5674f",289,"NA","yellows",9,7,1,723.789999999921
"5588d358fdf99b304ee5674f",290,"NA","yellows",6,8,0,733.380000000005
"5588d358fdf99b304ee5674f",291,"NA","yellows",17,15,1,1103.34500000009
"5588d358fdf99b304ee5674f",292,"NA","yellows",11,13,0,863.429999999935
"5588d358fdf99b304ee5674f",293,"NA","reds",3,1,1,589.675000000047
"5588d358fdf99b304ee5674f",294,"NA","yellows",8,10,0,1327.10999999999
"5588d358fdf99b304ee5674f",295,"NA","yellows",5,3,1,1189.26000000001
"5588d358fdf99b304ee5674f",296,"NA","reds",14,12,1,676.015000000014
"5588d358fdf99b304ee5674f",297,"NA","browns",10,12,0,719.829999999958
"55ae6a39fdf99b44a305f1eb",5,"NA","reds",9,11,1,1589.20000000298
"55ae6a39fdf99b44a305f1eb",6,"NA","browns",15,13,1,1345.10000000149
"55ae6a39fdf99b44a305f1eb",7,"NA","yellows",14,12,1,1333.79999999702
"55ae6a39fdf99b44a305f1eb",8,"NA","blues",10,12,1,1742.39999999851
"55ae6a39fdf99b44a305f1eb",9,"NA","blues",1,3,1,853.10000000149
"55ae6a39fdf99b44a305f1eb",10,"NA","yellows",10,12,1,1238.09999999404
"55ae6a39fdf99b44a305f1eb",11,"NA","browns",6,8,1,789.19999999553
"55ae6a39fdf99b44a305f1eb",12,"NA","reds",2,4,1,948.5
"55ae6a39fdf99b44a305f1eb",13,"NA","yellows",16,14,1,1707.30000000447
"55ae6a39fdf99b44a305f1eb",14,"NA","reds",10,8,1,1998.69999999553
"55ae6a39fdf99b44a305f1eb",15,"NA","blues",4,6,1,956
"55ae6a39fdf99b44a305f1eb",16,"NA","browns",14,12,1,1069.39999999851
"55ae6a39fdf99b44a305f1eb",17,"NA","reds",14,12,1,944.09999999404
"55ae6a39fdf99b44a305f1eb",18,"NA","browns",10,8,1,1342.20000000298
"55ae6a39fdf99b44a305f1eb",19,"NA","blues",4,2,1,1300.29999999702
"55ae6a39fdf99b44a305f1eb",20,"NA","browns",20,18,1,1889.79999999702
"55ae6a39fdf99b44a305f1eb",21,"NA","yellows",9,11,1,3261.19999999553
"55ae6a39fdf99b44a305f1eb",22,"NA","browns",12,14,1,1004.60000000149
"55ae6a39fdf99b44a305f1eb",23,"NA","blues",8,10,1,1408.20000000298
"55ae6a39fdf99b44a305f1eb",24,"NA","yellows",11,13,1,1578.39999999851
"55ae6a39fdf99b44a305f1eb",25,"NA","yellows",16,18,1,1081.5
"55ae6a39fdf99b44a305f1eb",26,"NA","blues",14,12,1,1174.5
"55ae6a39fdf99b44a305f1eb",27,"NA","browns",17,15,1,1676.29999999702
"55ae6a39fdf99b44a305f1eb",28,"NA","browns",16,14,1,1300
"55ae6a39fdf99b44a305f1eb",29,"NA","reds",14,16,0,1092.79999999702
"55ae6a39fdf99b44a305f1eb",30,"NA","yellows",19,17,1,1154.70000000298
"55ae6a39fdf99b44a305f1eb",31,"NA","yellows",4,6,1,986.69999999553
"55ae6a39fdf99b44a305f1eb",32,"NA","browns",8,10,1,1230.89999999851
"55ae6a39fdf99b44a305f1eb",33,"NA","reds",20,18,0,3642.30000000447
"55ae6a39fdf99b44a305f1eb",34,"NA","yellows",3,5,1,1443.60000000149
"55ae6a39fdf99b44a305f1eb",35,"NA","browns",5,7,1,1533.60000000149
"55ae6a39fdf99b44a305f1eb",36,"NA","reds",2,4,1,2891.69999999553
"55ae6a39fdf99b44a305f1eb",37,"NA","reds",15,13,1,3086
"55ae6a39fdf99b44a305f1eb",38,"NA","browns",4,2,1,1070.10000000149
"55ae6a39fdf99b44a305f1eb",39,"NA","browns",10,12,1,3272
"55ae6a39fdf99b44a305f1eb",40,"NA","yellows",17,15,1,978.20000000298
"55ae6a39fdf99b44a305f1eb",41,"NA","reds",9,7,1,1220.29999999702
"55ae6a39fdf99b44a305f1eb",42,"NA","blues",8,6,1,1603.59999999404
"55ae6a39fdf99b44a305f1eb",43,"NA","yellows",7,5,1,1704.79999999702
"55ae6a39fdf99b44a305f1eb",44,"NA","browns",15,17,1,1472.60000000149
"55ae6a39fdf99b44a305f1eb",45,"NA","reds",7,5,1,1178.30000000447
"55ae6a39fdf99b44a305f1eb",46,"NA","browns",8,6,1,1495.59999999404
"55ae6a39fdf99b44a305f1eb",47,"NA","yellows",2,4,1,1287.70000000298
"55ae6a39fdf99b44a305f1eb",48,"NA","blues",16,18,1,1167.79999999702
"55ae6a39fdf99b44a305f1eb",49,"NA","blues",12,14,1,1762.60000000149
"55ae6a39fdf99b44a305f1eb",50,"NA","reds",3,1,1,1567.20000000298
"55ae6a39fdf99b44a305f1eb",51,"NA","blues",19,17,1,1970.69999999553
"55ae6a39fdf99b44a305f1eb",52,"NA","blues",6,4,1,1136.39999999851
"55ae6a39fdf99b44a305f1eb",53,"NA","browns",1,3,1,839.60000000149
"55ae6a39fdf99b44a305f1eb",55,"NA","browns",14,12,1,1321.70000000298
"55ae6a39fdf99b44a305f1eb",56,"NA","yellows",18,20,1,1260.20000000298
"55ae6a39fdf99b44a305f1eb",57,"NA","yellows",15,13,0,2148.39999999851
"55ae6a39fdf99b44a305f1eb",58,"NA","yellows",12,14,1,1790
"55ae6a39fdf99b44a305f1eb",59,"NA","yellows",8,6,1,956.70000000298
"55ae6a39fdf99b44a305f1eb",60,"NA","yellows",15,17,1,994.89999999851
"55ae6a39fdf99b44a305f1eb",61,"NA","blues",5,7,1,899.5
"55ae6a39fdf99b44a305f1eb",62,"NA","yellows",2,4,1,999.20000000298
"55ae6a39fdf99b44a305f1eb",63,"NA","reds",11,13,1,1967
"55ae6a39fdf99b44a305f1eb",64,"NA","yellows",15,13,1,1724.20000000298
"55ae6a39fdf99b44a305f1eb",65,"NA","reds",17,19,1,1523.5
"55ae6a39fdf99b44a305f1eb",66,"NA","reds",11,9,1,1706.10000000149
"55ae6a39fdf99b44a305f1eb",67,"NA","reds",11,13,0,1556.5
"55ae6a39fdf99b44a305f1eb",68,"NA","blues",11,13,1,2475.5
"55ae6a39fdf99b44a305f1eb",69,"NA","yellows",7,9,1,1391.10000000149
"55ae6a39fdf99b44a305f1eb",70,"NA","browns",16,18,1,1883.5
"55ae6a39fdf99b44a305f1eb",71,"NA","browns",17,15,1,1120
"55ae6a39fdf99b44a305f1eb",72,"NA","browns",5,7,1,1132.19999999553
"55ae6a39fdf99b44a305f1eb",73,"NA","yellows",6,8,1,1440.79999999702
"55ae6a39fdf99b44a305f1eb",74,"NA","blues",20,18,1,2821.60000000149
"55ae6a39fdf99b44a305f1eb",75,"NA","reds",9,11,1,1974.29999999702
"55ae6a39fdf99b44a305f1eb",76,"NA","blues",3,1,0,1345.60000000149
"55ae6a39fdf99b44a305f1eb",77,"NA","browns",6,4,1,1065.60000000149
"55ae6a39fdf99b44a305f1eb",78,"NA","yellows",20,18,1,1034.5
"55ae6a39fdf99b44a305f1eb",79,"NA","yellows",17,15,1,2075.60000000149
"55ae6a39fdf99b44a305f1eb",80,"NA","reds",3,5,1,1390.29999999702
"55ae6a39fdf99b44a305f1eb",81,"NA","reds",10,8,1,928.20000000298
"55ae6a39fdf99b44a305f1eb",82,"NA","browns",10,12,0,1473.39999999851
"55ae6a39fdf99b44a305f1eb",83,"NA","browns",11,9,1,1366.60000000149
"55ae6a39fdf99b44a305f1eb",84,"NA","browns",18,16,1,1104.10000000149
"55ae6a39fdf99b44a305f1eb",85,"NA","blues",2,4,1,1125.89999999851
"55ae6a39fdf99b44a305f1eb",86,"NA","yellows",13,11,1,1706.60000000149
"55ae6a39fdf99b44a305f1eb",87,"NA","blues",7,9,1,908.60000000149
"55ae6a39fdf99b44a305f1eb",88,"NA","reds",17,15,1,2367.5
"55ae6a39fdf99b44a305f1eb",89,"NA","yellows",9,7,0,2.60000000149012
"55ae6a39fdf99b44a305f1eb",90,"NA","reds",8,6,1,1341.29999999702
"55ae6a39fdf99b44a305f1eb",91,"NA","blues",17,19,1,1569.59999999404
"55ae6a39fdf99b44a305f1eb",92,"NA","blues",8,10,1,1453.20000000298
"55ae6a39fdf99b44a305f1eb",93,"NA","reds",18,16,0,3601.5
"55ae6a39fdf99b44a305f1eb",94,"NA","reds",5,3,1,1502.70000000298
"55ae6a39fdf99b44a305f1eb",95,"NA","blues",4,6,1,1269
"55ae6a39fdf99b44a305f1eb",96,"NA","browns",8,6,1,993.89999999851
"55ae6a39fdf99b44a305f1eb",97,"NA","reds",10,12,1,1143.5
"55ae6a39fdf99b44a305f1eb",98,"NA","browns",13,15,1,1646.39999999851
"55ae6a39fdf99b44a305f1eb",99,"NA","reds",18,16,1,1912.89999999851
"55ae6a39fdf99b44a305f1eb",100,"NA","browns",13,11,1,1278.80000000447
"55ae6a39fdf99b44a305f1eb",101,"NA","browns",7,5,1,1075.20000000298
"55ae6a39fdf99b44a305f1eb",102,"NA","blues",5,7,1,1255.20000000298
"55ae6a39fdf99b44a305f1eb",103,"NA","browns",9,7,1,914.69999999553
"55ae6a39fdf99b44a305f1eb",104,"NA","browns",13,11,1,932.89999999851
"55ae6a39fdf99b44a305f1eb",106,"NA","blues",5,3,1,1408.80000000447
"55ae6a39fdf99b44a305f1eb",107,"NA","reds",7,5,1,1607.19999999553
"55ae6a39fdf99b44a305f1eb",108,"NA","browns",19,17,1,1179
"55ae6a39fdf99b44a305f1eb",109,"NA","browns",18,16,1,1566.10000000149
"55ae6a39fdf99b44a305f1eb",110,"NA","yellows",4,2,1,3303.20000000298
"55ae6a39fdf99b44a305f1eb",111,"NA","reds",7,9,1,1386.20000000298
"55ae6a39fdf99b44a305f1eb",112,"NA","yellows",14,16,1,1276.5
"55ae6a39fdf99b44a305f1eb",113,"NA","reds",4,2,1,932.40000000596
"55ae6a39fdf99b44a305f1eb",114,"NA","yellows",9,11,0,2689.39999999851
"55ae6a39fdf99b44a305f1eb",115,"NA","blues",14,16,0,1685.79999999702
"55ae6a39fdf99b44a305f1eb",116,"NA","yellows",5,7,1,2168
"55ae6a39fdf99b44a305f1eb",117,"NA","browns",4,6,1,1263.79999999702
"55ae6a39fdf99b44a305f1eb",118,"NA","yellows",14,16,1,1456.09999999404
"55ae6a39fdf99b44a305f1eb",119,"NA","browns",15,13,1,1311.40000000596
"55ae6a39fdf99b44a305f1eb",120,"NA","browns",5,3,1,1098.39999999851
"55ae6a39fdf99b44a305f1eb",121,"NA","blues",19,17,1,2387.5
"55ae6a39fdf99b44a305f1eb",122,"NA","reds",19,17,0,2559.29999999702
"55ae6a39fdf99b44a305f1eb",123,"NA","blues",12,10,1,992.5
"55ae6a39fdf99b44a305f1eb",124,"NA","browns",18,20,1,3197.39999999851
"55ae6a39fdf99b44a305f1eb",125,"NA","browns",15,17,1,1548.80000000447
"55ae6a39fdf99b44a305f1eb",126,"NA","yellows",18,16,1,771
"55ae6a39fdf99b44a305f1eb",127,"NA","reds",12,10,1,1579
"55ae6a39fdf99b44a305f1eb",128,"NA","browns",3,5,1,1572.79999999702
"55ae6a39fdf99b44a305f1eb",129,"NA","reds",16,14,1,1653.60000000149
"55ae6a39fdf99b44a305f1eb",130,"NA","blues",10,12,1,1183.59999999404
"55ae6a39fdf99b44a305f1eb",131,"NA","reds",7,9,1,1386.69999999553
"55ae6a39fdf99b44a305f1eb",132,"NA","blues",2,4,1,1005.39999999851
"55ae6a39fdf99b44a305f1eb",133,"NA","blues",18,20,1,1725.59999999404
"55ae6a39fdf99b44a305f1eb",134,"NA","reds",20,18,1,1151.89999999851
"55ae6a39fdf99b44a305f1eb",135,"NA","reds",13,15,1,2460.60000000149
"55ae6a39fdf99b44a305f1eb",136,"NA","browns",7,9,1,1157.89999999851
"55ae6a39fdf99b44a305f1eb",137,"NA","yellows",11,13,1,1410.30000000447
"55ae6a39fdf99b44a305f1eb",138,"NA","blues",1,3,1,1155.60000000149
"55ae6a39fdf99b44a305f1eb",139,"NA","reds",17,19,1,1421.89999999851
"55ae6a39fdf99b44a305f1eb",140,"NA","reds",14,12,1,858.69999999553
"55ae6a39fdf99b44a305f1eb",141,"NA","blues",9,11,1,1778.30000000447
"55ae6a39fdf99b44a305f1eb",142,"NA","blues",11,9,1,969.80000000447
"55ae6a39fdf99b44a305f1eb",143,"NA","yellows",10,12,1,1407.80000000447
"55ae6a39fdf99b44a305f1eb",144,"NA","yellows",5,3,1,1216.39999999851
"55ae6a39fdf99b44a305f1eb",145,"NA","yellows",13,15,1,1150
"55ae6a39fdf99b44a305f1eb",146,"NA","browns",12,10,1,1206.60000000149
"55ae6a39fdf99b44a305f1eb",147,"NA","reds",16,18,1,2087.29999999702
"55ae6a39fdf99b44a305f1eb",148,"NA","yellows",11,9,1,1241.29999999702
"55ae6a39fdf99b44a305f1eb",149,"NA","reds",3,1,1,1382.69999999553
"55ae6a39fdf99b44a305f1eb",150,"NA","yellows",7,5,1,847.89999999851
"55ae6a39fdf99b44a305f1eb",151,"NA","reds",8,10,1,1406.20000000298
"55ae6a39fdf99b44a305f1eb",152,"NA","yellows",17,19,1,1026.90000000596
"55ae6a39fdf99b44a305f1eb",153,"NA","blues",16,14,1,787.19999999553
"55ae6a39fdf99b44a305f1eb",154,"NA","yellows",18,16,1,832.10000000149
"55ae6a39fdf99b44a305f1eb",155,"NA","yellows",1,3,0,1008
"55ae6a39fdf99b44a305f1eb",157,"NA","blues",10,8,1,1170.30000000447
"55ae6a39fdf99b44a305f1eb",158,"NA","blues",15,13,1,2169.39999999851
"55ae6a39fdf99b44a305f1eb",159,"NA","reds",5,7,1,976.10000000149
"55ae6a39fdf99b44a305f1eb",160,"NA","blues",7,9,1,1286.89999999851
"55ae6a39fdf99b44a305f1eb",161,"NA","yellows",6,4,1,1111.59999999404
"55ae6a39fdf99b44a305f1eb",162,"NA","reds",6,8,1,2175.29999999702
"55ae6a39fdf99b44a305f1eb",163,"NA","browns",20,18,1,1474
"55ae6a39fdf99b44a305f1eb",164,"NA","blues",15,17,1,1461.20000000298
"55ae6a39fdf99b44a305f1eb",165,"NA","reds",8,6,1,808.20000000298
"55ae6a39fdf99b44a305f1eb",166,"NA","blues",13,11,1,1130.20000000298
"55ae6a39fdf99b44a305f1eb",167,"NA","yellows",10,8,1,788.30000000447
"55ae6a39fdf99b44a305f1eb",168,"NA","yellows",3,5,1,794.39999999851
"55ae6a39fdf99b44a305f1eb",169,"NA","reds",13,11,1,1796.20000000298
"55ae6a39fdf99b44a305f1eb",170,"NA","reds",4,2,1,1256.79999999702
"55ae6a39fdf99b44a305f1eb",171,"NA","blues",18,16,1,905.60000000149
"55ae6a39fdf99b44a305f1eb",172,"NA","yellows",4,6,1,1317.29999999702
"55ae6a39fdf99b44a305f1eb",173,"NA","yellows",12,10,1,1597.20000000298
"55ae6a39fdf99b44a305f1eb",174,"NA","browns",9,7,1,1041.39999999851
"55ae6a39fdf99b44a305f1eb",175,"NA","reds",10,12,1,3411.79999999702
"55ae6a39fdf99b44a305f1eb",176,"NA","reds",5,3,1,700.10000000149
"55ae6a39fdf99b44a305f1eb",177,"NA","blues",14,16,1,1323.29999999702
"55ae6a39fdf99b44a305f1eb",178,"NA","yellows",16,14,1,1542.89999999851
"55ae6a39fdf99b44a305f1eb",179,"NA","browns",3,1,1,963
"55ae6a39fdf99b44a305f1eb",180,"NA","blues",6,8,1,958.39999999851
"55ae6a39fdf99b44a305f1eb",181,"NA","blues",6,8,1,969.10000000149
"55ae6a39fdf99b44a305f1eb",182,"NA","yellows",11,9,1,812.39999999851
"55ae6a39fdf99b44a305f1eb",183,"NA","reds",4,6,1,1087.70000000298
"55ae6a39fdf99b44a305f1eb",184,"NA","reds",18,20,1,2530.70000000298
"55ae6a39fdf99b44a305f1eb",185,"NA","blues",18,16,1,830.5
"55ae6a39fdf99b44a305f1eb",186,"NA","reds",9,7,1,737.30000000447
"55ae6a39fdf99b44a305f1eb",187,"NA","yellows",19,17,1,777.30000000447
"55ae6a39fdf99b44a305f1eb",188,"NA","browns",12,14,1,870.30000000447
"55ae6a39fdf99b44a305f1eb",189,"NA","yellows",16,18,1,1250.89999999851
"55ae6a39fdf99b44a305f1eb",190,"NA","blues",15,13,1,1026.69999999553
"55ae6a39fdf99b44a305f1eb",191,"NA","reds",12,10,1,848.10000000149
"55ae6a39fdf99b44a305f1eb",192,"NA","reds",13,15,1,1383.29999999702
"55ae6a39fdf99b44a305f1eb",193,"NA","browns",4,6,1,1541.39999999851
"55ae6a39fdf99b44a305f1eb",194,"NA","yellows",3,1,1,1823.09999999404
"55ae6a39fdf99b44a305f1eb",195,"NA","browns",16,18,1,1183.60000000149
"55ae6a39fdf99b44a305f1eb",196,"NA","yellows",10,8,1,1510.5
"55ae6a39fdf99b44a305f1eb",197,"NA","yellows",7,9,1,1040.5
"55ae6a39fdf99b44a305f1eb",198,"NA","blues",13,15,1,1138.79999999702
"55ae6a39fdf99b44a305f1eb",199,"NA","blues",3,1,1,845.39999999851
"55ae6a39fdf99b44a305f1eb",200,"NA","browns",11,9,1,771.39999999851
"55ae6a39fdf99b44a305f1eb",201,"NA","yellows",18,20,1,956.79999999702
"55ae6a39fdf99b44a305f1eb",202,"NA","blues",4,2,1,863.5
"55ae6a39fdf99b44a305f1eb",203,"NA","yellows",8,6,1,1780.60000000149
"55ae6a39fdf99b44a305f1eb",204,"NA","blues",9,11,1,1089.70000000298
"55ae6a39fdf99b44a305f1eb",205,"NA","browns",9,11,0,2642.10000000149
"55ae6a39fdf99b44a305f1eb",206,"NA","reds",12,14,0,4358.5
"55ae6a39fdf99b44a305f1eb",208,"NA","yellows",6,4,1,874.29999999702
"55ae6a39fdf99b44a305f1eb",209,"NA","blues",12,14,1,790.30000000447
"55ae6a39fdf99b44a305f1eb",210,"NA","blues",11,13,1,773.70000000298
"55ae6a39fdf99b44a305f1eb",211,"NA","blues",12,10,1,823
"55ae6a39fdf99b44a305f1eb",212,"NA","blues",13,15,1,1201.40000000596
"55ae6a39fdf99b44a305f1eb",213,"NA","browns",9,11,1,810.79999999702
"55ae6a39fdf99b44a305f1eb",214,"NA","yellows",6,8,1,1311.39999999851
"55ae6a39fdf99b44a305f1eb",215,"NA","browns",14,16,1,1563
"55ae6a39fdf99b44a305f1eb",216,"NA","reds",1,3,1,1432.79999999702
"55ae6a39fdf99b44a305f1eb",217,"NA","reds",3,5,1,964.90000000596
"55ae6a39fdf99b44a305f1eb",218,"NA","reds",5,7,1,1450.10000000149
"55ae6a39fdf99b44a305f1eb",219,"NA","yellows",15,17,1,1273
"55ae6a39fdf99b44a305f1eb",220,"NA","reds",19,17,0,2695.89999999851
"55ae6a39fdf99b44a305f1eb",221,"NA","blues",8,6,1,1003.39999999851
"55ae6a39fdf99b44a305f1eb",222,"NA","yellows",4,2,1,867
"55ae6a39fdf99b44a305f1eb",223,"NA","browns",11,13,0,1088.69999999553
"55ae6a39fdf99b44a305f1eb",224,"NA","browns",6,8,1,1156.60000000149
"55ae6a39fdf99b44a305f1eb",225,"NA","blues",10,8,1,1639.20000000298
"55ae6a39fdf99b44a305f1eb",226,"NA","blues",17,15,1,849.90000000596
"55ae6a39fdf99b44a305f1eb",227,"NA","blues",11,9,1,2316.20000000298
"55ae6a39fdf99b44a305f1eb",228,"NA","reds",6,8,0,1664.10000000149
"55ae6a39fdf99b44a305f1eb",229,"NA","reds",13,11,1,989.39999999851
"55ae6a39fdf99b44a305f1eb",230,"NA","yellows",14,12,1,1434.10000000149
"55ae6a39fdf99b44a305f1eb",231,"NA","blues",7,5,1,1103.70000000298
"55ae6a39fdf99b44a305f1eb",232,"NA","blues",16,18,1,1925.60000000149
"55ae6a39fdf99b44a305f1eb",233,"NA","blues",5,3,1,1003.80000000447
"55ae6a39fdf99b44a305f1eb",234,"NA","browns",2,4,1,1270.90000000596
"55ae6a39fdf99b44a305f1eb",235,"NA","reds",15,17,0,1568.70000000298
"55ae6a39fdf99b44a305f1eb",236,"NA","reds",11,9,1,1766
"55ae6a39fdf99b44a305f1eb",237,"NA","yellows",5,7,1,1973.30000000447
"55ae6a39fdf99b44a305f1eb",238,"NA","browns",18,20,1,2328.69999999553
"55ae6a39fdf99b44a305f1eb",239,"NA","reds",8,10,1,1024.39999999851
"55ae6a39fdf99b44a305f1eb",240,"NA","reds",16,18,0,1785.5
"55ae6a39fdf99b44a305f1eb",241,"NA","blues",17,19,0,934
"55ae6a39fdf99b44a305f1eb",242,"NA","reds",15,17,0,1253.10000000149
"55ae6a39fdf99b44a305f1eb",243,"NA","yellows",1,3,1,1156.20000000298
"55ae6a39fdf99b44a305f1eb",244,"NA","browns",7,9,1,1159.30000000447
"55ae6a39fdf99b44a305f1eb",245,"NA","browns",5,3,1,697.10000000149
"55ae6a39fdf99b44a305f1eb",246,"NA","blues",7,5,1,802.10000000149
"55ae6a39fdf99b44a305f1eb",247,"NA","reds",1,3,1,2036.30000000447
"55ae6a39fdf99b44a305f1eb",248,"NA","blues",18,20,0,902.39999999851
"55ae6a39fdf99b44a305f1eb",249,"NA","reds",16,14,0,1086.5
"55ae6a39fdf99b44a305f1eb",250,"NA","reds",6,4,1,1031.20000000298
"55ae6a39fdf99b44a305f1eb",251,"NA","yellows",13,11,1,1654.10000000149
"55ae6a39fdf99b44a305f1eb",252,"NA","blues",15,17,1,992.69999999553
"55ae6a39fdf99b44a305f1eb",253,"NA","reds",12,14,1,1957.89999999851
"55ae6a39fdf99b44a305f1eb",254,"NA","reds",14,16,0,874.89999999851
"55ae6a39fdf99b44a305f1eb",255,"NA","browns",17,19,1,1364.89999999851
"55ae6a39fdf99b44a305f1eb",256,"NA","yellows",5,3,1,829.90000000596
"55ae6a39fdf99b44a305f1eb",257,"NA","browns",14,16,1,1211.30000000447
"55ae6a39fdf99b44a305f1eb",259,"NA","blues",17,15,1,1620.5
"55ae6a39fdf99b44a305f1eb",260,"NA","blues",3,5,1,997.79999999702
"55ae6a39fdf99b44a305f1eb",261,"NA","blues",14,12,1,815.09999999404
"55ae6a39fdf99b44a305f1eb",262,"NA","yellows",20,18,1,1073.20000000298
"55ae6a39fdf99b44a305f1eb",263,"NA","browns",4,2,1,841
"55ae6a39fdf99b44a305f1eb",264,"NA","blues",16,14,1,912
"55ae6a39fdf99b44a305f1eb",265,"NA","yellows",17,19,1,946.10000000149
"55ae6a39fdf99b44a305f1eb",266,"NA","browns",10,8,1,835.90000000596
"55ae6a39fdf99b44a305f1eb",267,"NA","browns",16,14,1,1040.89999999851
"55ae6a39fdf99b44a305f1eb",268,"NA","yellows",12,10,1,946
"55ae6a39fdf99b44a305f1eb",269,"NA","yellows",8,10,1,1832.30000000447
"55ae6a39fdf99b44a305f1eb",270,"NA","browns",13,15,0,786.5
"55ae6a39fdf99b44a305f1eb",271,"NA","yellows",12,14,1,2333.69999999553
"55ae6a39fdf99b44a305f1eb",272,"NA","blues",9,7,1,801.5
"55ae6a39fdf99b44a305f1eb",273,"NA","browns",7,5,1,1150.70000000298
"55ae6a39fdf99b44a305f1eb",274,"NA","browns",19,17,1,1259.39999999851
"55ae6a39fdf99b44a305f1eb",275,"NA","yellows",13,15,1,1608.30000000447
"55ae6a39fdf99b44a305f1eb",276,"NA","reds",15,13,1,2267.29999999702
"55ae6a39fdf99b44a305f1eb",277,"NA","blues",13,11,1,2031.79999999702
"55ae6a39fdf99b44a305f1eb",278,"NA","reds",18,20,0,2198.89999999851
"55ae6a39fdf99b44a305f1eb",279,"NA","reds",6,4,1,879.10000000149
"55ae6a39fdf99b44a305f1eb",280,"NA","yellows",8,10,1,1936.79999999702
"55ae6a39fdf99b44a305f1eb",281,"NA","blues",20,18,0,1052.60000000149
"55ae6a39fdf99b44a305f1eb",282,"NA","browns",17,19,1,2338
"55ae6a39fdf99b44a305f1eb",283,"NA","reds",17,15,1,1729.19999999553
"55ae6a39fdf99b44a305f1eb",284,"NA","yellows",3,1,1,1773.89999999851
"55ae6a39fdf99b44a305f1eb",285,"NA","blues",9,7,1,1234.79999999702
"55ae6a39fdf99b44a305f1eb",286,"NA","blues",6,4,1,2974.19999999553
"55ae6a39fdf99b44a305f1eb",287,"NA","browns",8,10,1,1041.5
"55ae6a39fdf99b44a305f1eb",288,"NA","browns",2,4,1,830.79999999702
"55ae6a39fdf99b44a305f1eb",289,"NA","blues",3,5,1,871.60000000149
"55ae6a39fdf99b44a305f1eb",290,"NA","reds",4,6,1,1097.5
"55ae6a39fdf99b44a305f1eb",291,"NA","browns",3,5,1,948.89999999851
"55ae6a39fdf99b44a305f1eb",292,"NA","browns",1,3,1,817.60000000149
"55ae6a39fdf99b44a305f1eb",293,"NA","browns",3,1,1,863.5
"55ae6a39fdf99b44a305f1eb",294,"NA","browns",12,10,0,1001.10000000149
"55ae6a39fdf99b44a305f1eb",295,"NA","yellows",9,7,1,2065.5
"55ae6a39fdf99b44a305f1eb",296,"NA","browns",6,4,1,1093.69999999553
"55ae6a39fdf99b44a305f1eb",297,"NA","browns",11,13,1,1935.20000000298
"55b237e6fdf99b19ea79d2f7",5,"NA","browns",16,14,1,3345.59999996424
"55b237e6fdf99b19ea79d2f7",6,"NA","blues",4,6,0,1943
"55b237e6fdf99b19ea79d2f7",7,"NA","reds",16,14,1,1638.69999998808
"55b237e6fdf99b19ea79d2f7",8,"NA","reds",8,6,1,1778.70000004768
"55b237e6fdf99b19ea79d2f7",9,"NA","browns",13,11,1,1553
"55b237e6fdf99b19ea79d2f7",10,"NA","reds",17,15,0,1687.40000003576
"55b237e6fdf99b19ea79d2f7",11,"NA","browns",5,7,1,2041.30000001192
"55b237e6fdf99b19ea79d2f7",12,"NA","blues",11,13,1,1775.40000003576
"55b237e6fdf99b19ea79d2f7",13,"NA","browns",4,6,1,1430.30000001192
"55b237e6fdf99b19ea79d2f7",14,"NA","reds",5,3,1,1550.09999996424
"55b237e6fdf99b19ea79d2f7",15,"NA","browns",15,17,0,1844.60000002384
"55b237e6fdf99b19ea79d2f7",16,"NA","browns",8,6,1,1450.5
"55b237e6fdf99b19ea79d2f7",17,"NA","reds",6,8,0,3095.20000004768
"55b237e6fdf99b19ea79d2f7",18,"NA","blues",5,7,1,1460.80000001192
"55b237e6fdf99b19ea79d2f7",19,"NA","yellows",1,3,0,4310.5
"55b237e6fdf99b19ea79d2f7",20,"NA","blues",9,7,1,1554.60000002384
"55b237e6fdf99b19ea79d2f7",21,"NA","yellows",17,19,0,1273.19999998808
"55b237e6fdf99b19ea79d2f7",22,"NA","reds",15,17,0,1740.5
"55b237e6fdf99b19ea79d2f7",23,"NA","yellows",13,11,1,2616.60000002384
"55b237e6fdf99b19ea79d2f7",24,"NA","yellows",15,17,0,1907.89999997616
"55b237e6fdf99b19ea79d2f7",25,"NA","reds",11,13,0,1714.39999997616
"55b237e6fdf99b19ea79d2f7",26,"NA","browns",9,11,1,1553.5
"55b237e6fdf99b19ea79d2f7",27,"NA","reds",4,2,1,1591.59999996424
"55b237e6fdf99b19ea79d2f7",28,"NA","reds",5,7,1,1606.59999996424
"55b237e6fdf99b19ea79d2f7",29,"NA","browns",14,16,1,1454.19999998808
"55b237e6fdf99b19ea79d2f7",30,"NA","reds",3,5,1,1632.19999998808
"55b237e6fdf99b19ea79d2f7",31,"NA","yellows",15,17,1,1399.80000001192
"55b237e6fdf99b19ea79d2f7",32,"NA","browns",20,18,1,1752.89999997616
"55b237e6fdf99b19ea79d2f7",33,"NA","reds",18,16,1,1431.39999997616
"55b237e6fdf99b19ea79d2f7",34,"NA","browns",11,9,1,1141.30000001192
"55b237e6fdf99b19ea79d2f7",35,"NA","blues",17,19,1,2350.60000002384
"55b237e6fdf99b19ea79d2f7",36,"NA","blues",13,11,1,2263.60000002384
"55b237e6fdf99b19ea79d2f7",37,"NA","blues",6,8,1,1716.39999997616
"55b237e6fdf99b19ea79d2f7",38,"NA","reds",14,16,1,5145.60000002384
"55b237e6fdf99b19ea79d2f7",39,"NA","blues",10,12,1,1267.5
"55b237e6fdf99b19ea79d2f7",40,"NA","yellows",2,4,1,5206
"55b237e6fdf99b19ea79d2f7",41,"NA","yellows",20,18,1,1247.10000002384
"55b237e6fdf99b19ea79d2f7",42,"NA","yellows",2,4,1,1739.19999998808
"55b237e6fdf99b19ea79d2f7",43,"NA","browns",8,10,0,1595.19999998808
"55b237e6fdf99b19ea79d2f7",44,"NA","yellows",13,15,0,1232.19999998808
"55b237e6fdf99b19ea79d2f7",45,"NA","browns",3,1,1,1017.29999995232
"55b237e6fdf99b19ea79d2f7",46,"NA","blues",8,6,1,941.599999964237
"55b237e6fdf99b19ea79d2f7",47,"NA","yellows",19,17,1,1198.40000003576
"55b237e6fdf99b19ea79d2f7",48,"NA","reds",19,17,0,1567.79999995232
"55b237e6fdf99b19ea79d2f7",49,"NA","blues",8,10,0,2583.89999997616
"55b237e6fdf99b19ea79d2f7",50,"NA","blues",20,18,1,1198.80000001192
"55b237e6fdf99b19ea79d2f7",51,"NA","yellows",7,5,1,3231.5
"55b237e6fdf99b19ea79d2f7",52,"NA","yellows",4,6,1,2912
"55b237e6fdf99b19ea79d2f7",53,"NA","blues",16,14,0,2669.30000001192
"55b237e6fdf99b19ea79d2f7",55,"NA","yellows",16,14,1,1491.69999998808
"55b237e6fdf99b19ea79d2f7",56,"NA","blues",15,13,1,1400.19999998808
"55b237e6fdf99b19ea79d2f7",57,"NA","blues",3,5,1,3156.59999996424
"55b237e6fdf99b19ea79d2f7",58,"NA","yellows",5,7,0,3251.69999998808
"55b237e6fdf99b19ea79d2f7",59,"NA","reds",6,4,1,1499.19999998808
"55b237e6fdf99b19ea79d2f7",60,"NA","browns",2,4,1,1355.80000001192
"55b237e6fdf99b19ea79d2f7",61,"NA","reds",3,1,1,1624.90000003576
"55b237e6fdf99b19ea79d2f7",62,"NA","reds",14,12,1,1203
"55b237e6fdf99b19ea79d2f7",63,"NA","reds",15,13,1,3968.69999998808
"55b237e6fdf99b19ea79d2f7",64,"NA","browns",13,15,0,979.899999976158
"55b237e6fdf99b19ea79d2f7",65,"NA","blues",6,8,0,942.699999988079
"55b237e6fdf99b19ea79d2f7",66,"NA","browns",9,11,0,955.900000035763
"55b237e6fdf99b19ea79d2f7",67,"NA","reds",12,10,1,3833
"55b237e6fdf99b19ea79d2f7",68,"NA","reds",2,4,1,1939.80000001192
"55b237e6fdf99b19ea79d2f7",69,"NA","blues",10,8,1,3255.39999997616
"55b237e6fdf99b19ea79d2f7",70,"NA","blues",7,9,1,1240.10000002384
"55b237e6fdf99b19ea79d2f7",71,"NA","reds",3,5,1,2229.39999997616
"55b237e6fdf99b19ea79d2f7",72,"NA","blues",9,7,1,1888.39999997616
"55b237e6fdf99b19ea79d2f7",73,"NA","reds",8,10,1,1547.60000002384
"55b237e6fdf99b19ea79d2f7",74,"NA","browns",19,17,1,2111.89999997616
"55b237e6fdf99b19ea79d2f7",75,"NA","reds",13,15,0,2635.80000001192
"55b237e6fdf99b19ea79d2f7",76,"NA","browns",7,9,0,1696.69999998808
"55b237e6fdf99b19ea79d2f7",77,"NA","reds",15,17,1,1228.5
"55b237e6fdf99b19ea79d2f7",78,"NA","yellows",11,13,1,2422.90000003576
"55b237e6fdf99b19ea79d2f7",79,"NA","yellows",18,16,1,875.400000035763
"55b237e6fdf99b19ea79d2f7",80,"NA","blues",7,5,1,1041.39999997616
"55b237e6fdf99b19ea79d2f7",81,"NA","blues",10,8,1,992.5
"55b237e6fdf99b19ea79d2f7",82,"NA","yellows",12,10,1,3904.60000002384
"55b237e6fdf99b19ea79d2f7",83,"NA","reds",17,19,1,2936.40000003576
"55b237e6fdf99b19ea79d2f7",84,"NA","browns",12,14,0,1067.39999997616
"55b237e6fdf99b19ea79d2f7",85,"NA","yellows",4,2,1,1771.90000003576
"55b237e6fdf99b19ea79d2f7",86,"NA","reds",9,7,1,3008.19999998808
"55b237e6fdf99b19ea79d2f7",87,"NA","blues",4,2,1,3296.10000002384
"55b237e6fdf99b19ea79d2f7",88,"NA","blues",12,10,1,1844.80000001192
"55b237e6fdf99b19ea79d2f7",89,"NA","blues",12,14,0,2644.39999997616
"55b237e6fdf99b19ea79d2f7",90,"NA","blues",11,9,1,1492.5
"55b237e6fdf99b19ea79d2f7",91,"NA","browns",17,19,1,2571.80000001192
"55b237e6fdf99b19ea79d2f7",92,"NA","reds",5,3,1,3384.10000002384
"55b237e6fdf99b19ea79d2f7",93,"NA","browns",15,13,1,2158.5
"55b237e6fdf99b19ea79d2f7",94,"NA","browns",11,13,0,3093.80000001192
"55b237e6fdf99b19ea79d2f7",95,"NA","browns",18,16,1,1195.39999997616
"55b237e6fdf99b19ea79d2f7",96,"NA","reds",12,14,0,4692.70000004768
"55b237e6fdf99b19ea79d2f7",97,"NA","browns",12,10,1,1719.69999998808
"55b237e6fdf99b19ea79d2f7",98,"NA","blues",15,17,0,5111.89999997616
"55b237e6fdf99b19ea79d2f7",99,"NA","reds",14,12,0,1598.19999998808
"55b237e6fdf99b19ea79d2f7",100,"NA","reds",1,3,1,1234.5
"55b237e6fdf99b19ea79d2f7",101,"NA","reds",12,10,1,971.5
"55b237e6fdf99b19ea79d2f7",102,"NA","yellows",5,7,0,1428.19999998808
"55b237e6fdf99b19ea79d2f7",103,"NA","blues",2,4,1,2548.59999996424
"55b237e6fdf99b19ea79d2f7",104,"NA","reds",3,1,1,2574.70000004768
"55b237e6fdf99b19ea79d2f7",106,"NA","browns",20,18,1,1937.5
"55b237e6fdf99b19ea79d2f7",107,"NA","reds",6,4,1,4053
"55b237e6fdf99b19ea79d2f7",108,"NA","reds",17,19,0,6624.19999998808
"55b237e6fdf99b19ea79d2f7",109,"NA","browns",17,15,1,2520.30000001192
"55b237e6fdf99b19ea79d2f7",110,"NA","blues",8,10,1,1504.30000001192
"55b237e6fdf99b19ea79d2f7",111,"NA","blues",13,15,0,2453.5
"55b237e6fdf99b19ea79d2f7",112,"NA","yellows",7,9,0,3672.80000001192
"55b237e6fdf99b19ea79d2f7",113,"NA","yellows",8,10,0,2203.19999998808
"55b237e6fdf99b19ea79d2f7",114,"NA","reds",17,15,1,1644.19999998808
"55b237e6fdf99b19ea79d2f7",115,"NA","browns",3,5,1,1395.59999996424
"55b237e6fdf99b19ea79d2f7",116,"NA","browns",4,6,1,1293.5
"55b237e6fdf99b19ea79d2f7",117,"NA","yellows",19,17,1,1142
"55b237e6fdf99b19ea79d2f7",118,"NA","browns",17,15,1,1007
"55b237e6fdf99b19ea79d2f7",119,"NA","yellows",9,11,0,5364.5
"55b237e6fdf99b19ea79d2f7",120,"NA","browns",11,9,1,1714.10000002384
"55b237e6fdf99b19ea79d2f7",121,"NA","yellows",11,9,1,4660
"55b237e6fdf99b19ea79d2f7",122,"NA","yellows",6,4,1,3488.19999998808
"55b237e6fdf99b19ea79d2f7",123,"NA","reds",13,15,1,3836.80000001192
"55b237e6fdf99b19ea79d2f7",124,"NA","yellows",14,12,1,4473.69999998808
"55b237e6fdf99b19ea79d2f7",125,"NA","blues",19,17,1,2612.09999996424
"55b237e6fdf99b19ea79d2f7",126,"NA","yellows",17,19,0,1204.19999998808
"55b237e6fdf99b19ea79d2f7",127,"NA","blues",20,18,1,1790.80000001192
"55b237e6fdf99b19ea79d2f7",128,"NA","blues",3,1,1,1936.5
"55b237e6fdf99b19ea79d2f7",129,"NA","reds",9,11,1,1558.39999997616
"55b237e6fdf99b19ea79d2f7",130,"NA","yellows",7,5,1,2225.09999996424
"55b237e6fdf99b19ea79d2f7",131,"NA","blues",1,3,1,1494
"55b237e6fdf99b19ea79d2f7",132,"NA","yellows",17,15,1,1068.59999996424
"55b237e6fdf99b19ea79d2f7",133,"NA","reds",10,12,0,2553.89999997616
"55b237e6fdf99b19ea79d2f7",134,"NA","reds",5,7,0,1144.60000002384
"55b237e6fdf99b19ea79d2f7",135,"NA","yellows",6,8,1,3386.60000002384
"55b237e6fdf99b19ea79d2f7",136,"NA","reds",12,14,0,1559.80000001192
"55b237e6fdf99b19ea79d2f7",137,"NA","reds",18,20,1,8866.90000003576
"55b237e6fdf99b19ea79d2f7",138,"NA","browns",18,16,1,1044.09999996424
"55b237e6fdf99b19ea79d2f7",139,"NA","blues",9,11,0,945.899999976158
"55b237e6fdf99b19ea79d2f7",140,"NA","yellows",3,1,1,1811.60000002384
"55b237e6fdf99b19ea79d2f7",141,"NA","browns",16,18,0,1020.30000001192
"55b237e6fdf99b19ea79d2f7",142,"NA","yellows",12,14,0,811.899999976158
"55b237e6fdf99b19ea79d2f7",143,"NA","blues",4,2,1,823.5
"55b237e6fdf99b19ea79d2f7",144,"NA","blues",7,9,0,1055.80000001192
"55b237e6fdf99b19ea79d2f7",145,"NA","reds",18,20,1,9198
"55b237e6fdf99b19ea79d2f7",146,"NA","reds",4,6,0,1558
"55b237e6fdf99b19ea79d2f7",147,"NA","yellows",7,9,0,1621.09999996424
"55b237e6fdf99b19ea79d2f7",148,"NA","reds",10,8,1,945.5
"55b237e6fdf99b19ea79d2f7",149,"NA","reds",9,7,1,816.899999976158
"55b237e6fdf99b19ea79d2f7",150,"NA","blues",18,16,1,760.699999988079
"55b237e6fdf99b19ea79d2f7",151,"NA","yellows",10,8,1,2907.29999995232
"55b237e6fdf99b19ea79d2f7",152,"NA","reds",7,9,0,2456.19999998808
"55b237e6fdf99b19ea79d2f7",153,"NA","yellows",9,7,1,3366.19999998808
"55b237e6fdf99b19ea79d2f7",154,"NA","browns",9,7,1,2229.30000001192
"55b237e6fdf99b19ea79d2f7",155,"NA","reds",16,18,0,3674.5
"55b237e6fdf99b19ea79d2f7",157,"NA","browns",3,1,1,3089.19999998808
"55b237e6fdf99b19ea79d2f7",158,"NA","browns",9,7,1,3190.60000002384
"55b237e6fdf99b19ea79d2f7",159,"NA","reds",2,4,0,1716.69999998808
"55b237e6fdf99b19ea79d2f7",160,"NA","yellows",10,12,0,2271
"55b237e6fdf99b19ea79d2f7",161,"NA","browns",19,17,1,983.300000011921
"55b237e6fdf99b19ea79d2f7",162,"NA","browns",6,8,0,880.299999952316
"55b237e6fdf99b19ea79d2f7",163,"NA","yellows",9,11,0,2644.40000003576
"55b237e6fdf99b19ea79d2f7",164,"NA","yellows",18,20,0,1587.59999996424
"55b237e6fdf99b19ea79d2f7",165,"NA","yellows",15,13,1,4251.40000003576
"55b237e6fdf99b19ea79d2f7",166,"NA","browns",17,19,1,5362.59999996424
"55b237e6fdf99b19ea79d2f7",167,"NA","blues",15,17,1,2490.10000002384
"55b237e6fdf99b19ea79d2f7",168,"NA","reds",10,8,1,8941.39999997616
"55b237e6fdf99b19ea79d2f7",169,"NA","browns",5,3,1,1581.30000001192
"55b237e6fdf99b19ea79d2f7",170,"NA","reds",8,10,0,1309.5
"55b237e6fdf99b19ea79d2f7",171,"NA","browns",11,13,0,3763.80000001192
"55b237e6fdf99b19ea79d2f7",172,"NA","reds",16,18,1,3295.19999998808
"55b237e6fdf99b19ea79d2f7",173,"NA","yellows",14,16,0,1106.89999997616
"55b237e6fdf99b19ea79d2f7",174,"NA","blues",14,12,1,1038.10000002384
"55b237e6fdf99b19ea79d2f7",175,"NA","blues",17,15,1,925.199999988079
"55b237e6fdf99b19ea79d2f7",176,"NA","yellows",8,10,1,2927.5
"55b237e6fdf99b19ea79d2f7",177,"NA","yellows",3,1,0,3832
"55b237e6fdf99b19ea79d2f7",178,"NA","yellows",20,18,1,1099.5
"55b237e6fdf99b19ea79d2f7",179,"NA","reds",11,9,1,929.699999988079
"55b237e6fdf99b19ea79d2f7",180,"NA","yellows",15,13,1,885.399999976158
"55b237e6fdf99b19ea79d2f7",181,"NA","blues",14,16,0,2866.89999997616
"55b237e6fdf99b19ea79d2f7",182,"NA","blues",9,11,1,1816.5
"55b237e6fdf99b19ea79d2f7",183,"NA","blues",12,10,1,1137.29999995232
"55b237e6fdf99b19ea79d2f7",184,"NA","yellows",1,3,1,5630.30000001192
"55b237e6fdf99b19ea79d2f7",185,"NA","yellows",16,18,0,1580.5
"55b237e6fdf99b19ea79d2f7",186,"NA","browns",15,13,1,1663
"55b237e6fdf99b19ea79d2f7",187,"NA","blues",4,6,0,2065.80000001192
"55b237e6fdf99b19ea79d2f7",188,"NA","reds",8,6,1,1788.60000002384
"55b237e6fdf99b19ea79d2f7",189,"NA","browns",14,16,1,2681
"55b237e6fdf99b19ea79d2f7",190,"NA","reds",14,16,1,3734.69999998808
"55b237e6fdf99b19ea79d2f7",191,"NA","yellows",16,14,1,1132.19999998808
"55b237e6fdf99b19ea79d2f7",192,"NA","blues",14,12,1,950.399999976158
"55b237e6fdf99b19ea79d2f7",193,"NA","blues",2,4,1,1407.10000002384
"55b237e6fdf99b19ea79d2f7",194,"NA","blues",6,4,1,4251
"55b237e6fdf99b19ea79d2f7",195,"NA","yellows",11,13,0,3166
"55b237e6fdf99b19ea79d2f7",196,"NA","blues",19,17,1,1583
"55b237e6fdf99b19ea79d2f7",197,"NA","blues",3,1,1,4551.40000003576
"55b237e6fdf99b19ea79d2f7",198,"NA","yellows",9,7,1,1200.80000001192
"55b237e6fdf99b19ea79d2f7",199,"NA","yellows",14,12,1,1496
"55b237e6fdf99b19ea79d2f7",200,"NA","yellows",8,6,1,1330.30000001192
"55b237e6fdf99b19ea79d2f7",201,"NA","browns",16,14,1,1038.19999998808
"55b237e6fdf99b19ea79d2f7",202,"NA","blues",18,20,0,1590.69999998808
"55b237e6fdf99b19ea79d2f7",203,"NA","yellows",11,9,1,1105.39999997616
"55b237e6fdf99b19ea79d2f7",204,"NA","yellows",5,3,1,2006.89999997616
"55b237e6fdf99b19ea79d2f7",205,"NA","yellows",13,11,1,1069.80000001192
"55b237e6fdf99b19ea79d2f7",206,"NA","browns",6,4,1,977.399999976158
"55b237e6fdf99b19ea79d2f7",208,"NA","yellows",4,2,1,3506.5
"55b237e6fdf99b19ea79d2f7",209,"NA","yellows",17,15,1,1941
"55b237e6fdf99b19ea79d2f7",210,"NA","blues",7,5,1,2329
"55b237e6fdf99b19ea79d2f7",211,"NA","blues",8,6,1,1642.69999998808
"55b237e6fdf99b19ea79d2f7",212,"NA","yellows",5,3,1,1726.69999998808
"55b237e6fdf99b19ea79d2f7",213,"NA","yellows",6,8,0,1164.39999997616
"55b237e6fdf99b19ea79d2f7",214,"NA","yellows",12,14,0,1654.80000001192
"55b237e6fdf99b19ea79d2f7",215,"NA","browns",10,12,1,1302.19999998808
"55b237e6fdf99b19ea79d2f7",216,"NA","browns",8,10,0,2135.29999995232
"55b237e6fdf99b19ea79d2f7",217,"NA","yellows",4,6,0,1804.10000002384
"55b237e6fdf99b19ea79d2f7",218,"NA","blues",13,15,0,7292.69999998808
"55b237e6fdf99b19ea79d2f7",219,"NA","yellows",10,12,0,1140.80000001192
"55b237e6fdf99b19ea79d2f7",220,"NA","blues",6,4,1,2453.80000001192
"55b237e6fdf99b19ea79d2f7",221,"NA","browns",2,4,1,1875.60000002384
"55b237e6fdf99b19ea79d2f7",222,"NA","reds",11,13,1,1268.09999996424
"55b237e6fdf99b19ea79d2f7",223,"NA","reds",7,5,1,4180.39999997616
"55b237e6fdf99b19ea79d2f7",224,"NA","reds",7,5,1,2840.10000002384
"55b237e6fdf99b19ea79d2f7",225,"NA","reds",16,14,1,2388
"55b237e6fdf99b19ea79d2f7",226,"NA","blues",5,7,1,1649.30000001192
"55b237e6fdf99b19ea79d2f7",227,"NA","browns",13,15,1,3001.80000001192
"55b237e6fdf99b19ea79d2f7",228,"NA","blues",17,15,1,3444.39999997616
"55b237e6fdf99b19ea79d2f7",229,"NA","reds",19,17,0,3796
"55b237e6fdf99b19ea79d2f7",230,"NA","reds",11,9,1,1593.10000002384
"55b237e6fdf99b19ea79d2f7",231,"NA","reds",13,11,1,975.200000047684
"55b237e6fdf99b19ea79d2f7",232,"NA","browns",3,5,0,2327.90000003576
"55b237e6fdf99b19ea79d2f7",233,"NA","reds",13,11,1,1393.59999996424
"55b237e6fdf99b19ea79d2f7",234,"NA","reds",4,2,1,1653.5
"55b237e6fdf99b19ea79d2f7",235,"NA","yellows",10,8,1,3125.30000001192
"55b237e6fdf99b19ea79d2f7",236,"NA","reds",6,8,1,1393.80000001192
"55b237e6fdf99b19ea79d2f7",237,"NA","blues",1,3,1,1618.30000001192
"55b237e6fdf99b19ea79d2f7",238,"NA","browns",14,12,1,2431.5
"55b237e6fdf99b19ea79d2f7",239,"NA","yellows",8,6,1,5727.79999995232
"55b237e6fdf99b19ea79d2f7",240,"NA","reds",18,16,1,4733.60000002384
"55b237e6fdf99b19ea79d2f7",241,"NA","yellows",13,15,0,1106.60000002384
"55b237e6fdf99b19ea79d2f7",242,"NA","reds",10,12,1,1463.80000001192
"55b237e6fdf99b19ea79d2f7",243,"NA","reds",7,9,1,2282.09999996424
"55b237e6fdf99b19ea79d2f7",244,"NA","blues",16,18,1,1967.79999995232
"55b237e6fdf99b19ea79d2f7",245,"NA","blues",18,16,1,1103.39999997616
"55b237e6fdf99b19ea79d2f7",246,"NA","blues",15,13,1,822.699999988079
"55b237e6fdf99b19ea79d2f7",247,"NA","blues",16,14,1,2584.30000001192
"55b237e6fdf99b19ea79d2f7",248,"NA","browns",5,3,1,1275.19999998808
"55b237e6fdf99b19ea79d2f7",249,"NA","blues",16,18,1,2085.70000004768
"55b237e6fdf99b19ea79d2f7",250,"NA","blues",11,9,1,1619
"55b237e6fdf99b19ea79d2f7",251,"NA","browns",7,5,1,1422
"55b237e6fdf99b19ea79d2f7",252,"NA","reds",9,11,0,2456.40000003576
"55b237e6fdf99b19ea79d2f7",253,"NA","browns",18,20,0,1813.89999997616
"55b237e6fdf99b19ea79d2f7",254,"NA","blues",3,5,1,1292
"55b237e6fdf99b19ea79d2f7",255,"NA","blues",18,20,1,2778.19999998808
"55b237e6fdf99b19ea79d2f7",256,"NA","blues",5,3,1,1918.59999996424
"55b237e6fdf99b19ea79d2f7",257,"NA","reds",20,18,1,1548.10000002384
"55b237e6fdf99b19ea79d2f7",259,"NA","blues",14,16,1,1905.19999998808
"55b237e6fdf99b19ea79d2f7",260,"NA","browns",13,11,1,817.199999988079
"55b237e6fdf99b19ea79d2f7",261,"NA","blues",10,12,1,1719.10000002384
"55b237e6fdf99b19ea79d2f7",262,"NA","browns",10,12,0,1138.80000001192
"55b237e6fdf99b19ea79d2f7",263,"NA","browns",15,17,0,1553.19999998808
"55b237e6fdf99b19ea79d2f7",264,"NA","browns",7,9,0,951.5
"55b237e6fdf99b19ea79d2f7",265,"NA","reds",15,13,0,3380.69999998808
"55b237e6fdf99b19ea79d2f7",266,"NA","browns",16,18,0,1136.19999998808
"55b237e6fdf99b19ea79d2f7",267,"NA","reds",20,18,0,1491.79999995232
"55b237e6fdf99b19ea79d2f7",268,"NA","reds",1,3,1,1612.80000001192
"55b237e6fdf99b19ea79d2f7",269,"NA","browns",12,14,1,1469.80000001192
"55b237e6fdf99b19ea79d2f7",270,"NA","blues",12,14,1,1265
"55b237e6fdf99b19ea79d2f7",271,"NA","yellows",3,5,1,1515.60000002384
"55b237e6fdf99b19ea79d2f7",272,"NA","yellows",18,16,1,1077.10000002384
"55b237e6fdf99b19ea79d2f7",273,"NA","browns",6,4,1,906.200000047684
"55b237e6fdf99b19ea79d2f7",274,"NA","blues",13,11,1,942
"55b237e6fdf99b19ea79d2f7",275,"NA","blues",17,19,1,1685.89999997616
"55b237e6fdf99b19ea79d2f7",276,"NA","yellows",14,16,0,1970.80000001192
"55b237e6fdf99b19ea79d2f7",277,"NA","browns",1,3,0,1553
"55b237e6fdf99b19ea79d2f7",278,"NA","browns",14,12,1,1262.69999998808
"55b237e6fdf99b19ea79d2f7",279,"NA","browns",10,8,1,1365.59999996424
"55b237e6fdf99b19ea79d2f7",280,"NA","browns",8,6,1,1135.69999998808
"55b237e6fdf99b19ea79d2f7",281,"NA","browns",12,10,1,6014.30000001192
"55b237e6fdf99b19ea79d2f7",282,"NA","yellows",6,4,1,4242.10000002384
"55b237e6fdf99b19ea79d2f7",283,"NA","browns",18,20,0,2612.59999996424
"55b237e6fdf99b19ea79d2f7",284,"NA","yellows",12,10,1,7293.90000003576
"55b237e6fdf99b19ea79d2f7",285,"NA","blues",5,3,1,1853.59999996424
"55b237e6fdf99b19ea79d2f7",286,"NA","blues",11,13,1,1879.39999997616
"55b237e6fdf99b19ea79d2f7",287,"NA","yellows",18,20,1,3507.79999995232
"55b237e6fdf99b19ea79d2f7",288,"NA","browns",4,2,1,1452.5
"55b237e6fdf99b19ea79d2f7",289,"NA","reds",4,6,1,1612.39999997616
"55b237e6fdf99b19ea79d2f7",290,"NA","browns",4,2,1,985.100000023842
"55b237e6fdf99b19ea79d2f7",291,"NA","browns",5,7,0,1360.69999998808
"55b237e6fdf99b19ea79d2f7",292,"NA","yellows",3,5,1,1993.40000003576
"55b237e6fdf99b19ea79d2f7",293,"NA","browns",1,3,1,1099.90000003576
"55b237e6fdf99b19ea79d2f7",294,"NA","browns",7,5,1,814
"55b237e6fdf99b19ea79d2f7",295,"NA","yellows",16,18,0,948.599999964237
"55b237e6fdf99b19ea79d2f7",296,"NA","browns",10,8,1,820.300000011921
"55b237e6fdf99b19ea79d2f7",297,"NA","browns",6,8,1,1910.69999998808
"55bede0dfdf99b6b67092299",5,"NA","yellows",10,8,1,1868.70500002988
"55bede0dfdf99b6b67092299",6,"NA","reds",7,9,0,1578.74500006437
"55bede0dfdf99b6b67092299",7,"NA","browns",7,5,1,1174.66000001878
"55bede0dfdf99b6b67092299",8,"NA","browns",14,12,1,777.740000048652
"55bede0dfdf99b6b67092299",9,"NA","browns",3,1,1,897.92999997735
"55bede0dfdf99b6b67092299",10,"NA","reds",13,11,1,897.525000153109
"55bede0dfdf99b6b67092299",11,"NA","yellows",15,13,1,975.795000093058
"55bede0dfdf99b6b67092299",12,"NA","blues",3,5,0,1345.48000013456
"55bede0dfdf99b6b67092299",13,"NA","browns",11,13,0,663.759999908507
"55bede0dfdf99b6b67092299",14,"NA","blues",8,10,0,939.135000109672
"55bede0dfdf99b6b67092299",15,"NA","browns",8,10,0,802.479999838397
"55bede0dfdf99b6b67092299",16,"NA","blues",2,4,0,641.284999903291
"55bede0dfdf99b6b67092299",17,"NA","browns",2,4,0,778.654999798164
"55bede0dfdf99b6b67092299",18,"NA","browns",6,4,1,581.584999803454
"55bede0dfdf99b6b67092299",19,"NA","blues",7,5,1,586.545000085607
"55bede0dfdf99b6b67092299",20,"NA","browns",15,17,0,880.640000104904
"55bede0dfdf99b6b67092299",21,"NA","browns",6,4,1,947.539999848232
"55bede0dfdf99b6b67092299",22,"NA","blues",20,18,1,714.855000143871
"55bede0dfdf99b6b67092299",23,"NA","reds",11,13,0,671.235000016168
"55bede0dfdf99b6b67092299",24,"NA","browns",12,14,0,728.295000037178
"55bede0dfdf99b6b67092299",25,"NA","reds",14,16,0,812.244999920949
"55bede0dfdf99b6b67092299",26,"NA","blues",19,17,1,677.695000078529
"55bede0dfdf99b6b67092299",27,"NA","reds",18,16,1,898.104999912903
"55bede0dfdf99b6b67092299",28,"NA","browns",5,7,0,672.655000118539
"55bede0dfdf99b6b67092299",29,"NA","reds",5,3,1,920.295000076294
"55bede0dfdf99b6b67092299",30,"NA","reds",10,8,1,671.125000109896
"55bede0dfdf99b6b67092299",31,"NA","blues",15,13,1,647.76000007987
"55bede0dfdf99b6b67092299",32,"NA","yellows",7,5,1,702.59499992244
"55bede0dfdf99b6b67092299",33,"NA","reds",5,7,0,643.570000072941
"55bede0dfdf99b6b67092299",34,"NA","blues",12,10,1,968.295000027865
"55bede0dfdf99b6b67092299",35,"NA","blues",5,7,1,1673.67499996908
"55bede0dfdf99b6b67092299",36,"NA","yellows",3,1,0,1154.13499996066
"55bede0dfdf99b6b67092299",37,"NA","reds",4,6,0,683.474999852479
"55bede0dfdf99b6b67092299",38,"NA","reds",5,7,0,530.535000143573
"55bede0dfdf99b6b67092299",39,"NA","reds",8,10,0,1537.53500012681
"55bede0dfdf99b6b67092299",40,"NA","blues",11,13,0,667.339999927208
"55bede0dfdf99b6b67092299",41,"NA","blues",15,17,0,1563.56999999844
"55bede0dfdf99b6b67092299",42,"NA","reds",6,4,1,637.969999806955
"55bede0dfdf99b6b67092299",43,"NA","browns",3,5,0,854.649999877438
"55bede0dfdf99b6b67092299",44,"NA","yellows",11,9,1,673.150000162423
"55bede0dfdf99b6b67092299",45,"NA","yellows",1,3,0,763.349999906495
"55bede0dfdf99b6b67092299",46,"NA","browns",14,16,0,716.885000001639
"55bede0dfdf99b6b67092299",47,"NA","yellows",5,7,1,637.374999932945
"55bede0dfdf99b6b67092299",48,"NA","reds",6,4,1,758.905000053346
"55bede0dfdf99b6b67092299",49,"NA","reds",12,10,1,575.759999919683
"55bede0dfdf99b6b67092299",50,"NA","browns",6,8,0,612.874999875203
"55bede0dfdf99b6b67092299",51,"NA","browns",6,8,0,626.275000162423
"55bede0dfdf99b6b67092299",52,"NA","reds",12,14,0,542.674999916926
"55bede0dfdf99b6b67092299",53,"NA","yellows",5,3,1,657.770000165328
"55bede0dfdf99b6b67092299",55,"NA","reds",10,8,1,614.305000053719
"55bede0dfdf99b6b67092299",56,"NA","blues",10,8,1,715.229999972507
"55bede0dfdf99b6b67092299",57,"NA","browns",5,3,1,554.879999952391
"55bede0dfdf99b6b67092299",58,"NA","yellows",7,9,0,788.350000046194
"55bede0dfdf99b6b67092299",59,"NA","browns",10,8,1,516.374999890104
"55bede0dfdf99b6b67092299",60,"NA","browns",10,12,0,731.36999993585
"55bede0dfdf99b6b67092299",61,"NA","yellows",14,12,1,795.704999938607
"55bede0dfdf99b6b67092299",62,"NA","yellows",20,18,1,577.010000124574
