"subject_id","trial_index","is_monolingual","colour","target","distractor","accuracy","rt"
"5918774ba391f200011b281f",6,"yes","browns",10,12,0,3186
"5918774ba391f200011b281f",7,"yes","yellows",6,4,1,1934
"5918774ba391f200011b281f",8,"yes","reds",6,8,0,1437
"5918774ba391f200011b281f",9,"yes","reds",10,12,0,2444
"5918774ba391f200011b281f",10,"yes","reds",8,6,1,1253
"5918774ba391f200011b281f",11,"yes","yellows",4,6,0,1405
"5918774ba391f200011b281f",12,"yes","blues",4,2,1,1029
"5918774ba391f200011b281f",13,"yes","blues",10,8,1,1091
"5918774ba391f200011b281f",14,"yes","blues",6,8,0,1011
"5918774ba391f200011b281f",15,"yes","yellows",20,18,1,1854
"5918774ba391f200011b281f",16,"yes","reds",2,4,0,1560
"5918774ba391f200011b281f",17,"yes","browns",15,13,1,1142
"5918774ba391f200011b281f",18,"yes","blues",16,18,0,1483
"5918774ba391f200011b281f",19,"yes","yellows",16,14,1,1335
"5918774ba391f200011b281f",20,"yes","browns",17,19,0,1728
"5918774ba391f200011b281f",21,"yes","yellows",15,13,1,1287
"5918774ba391f200011b281f",22,"yes","yellows",10,8,1,1520
"5918774ba391f200011b281f",23,"yes","yellows",13,15,0,1518
"5918774ba391f200011b281f",24,"yes","reds",16,18,0,3447
"5918774ba391f200011b281f",25,"yes","reds",7,5,1,1351
"5918774ba391f200011b281f",26,"yes","yellows",7,9,0,1632
"5918774ba391f200011b281f",27,"yes","reds",9,7,1,1576
"5918774ba391f200011b281f",28,"yes","browns",8,6,1,1071
"5918774ba391f200011b281f",29,"yes","blues",12,14,0,1358
"5918774ba391f200011b281f",30,"yes","yellows",17,15,1,1535
"5918774ba391f200011b281f",31,"yes","blues",15,13,1,958
"5918774ba391f200011b281f",32,"yes","blues",8,10,1,2663
"5918774ba391f200011b281f",33,"yes","reds",15,17,0,1872
"5918774ba391f200011b281f",34,"yes","blues",10,8,1,1279
"5918774ba391f200011b281f",35,"yes","yellows",12,10,1,1510
"5918774ba391f200011b281f",36,"yes","yellows",13,11,1,1351
"5918774ba391f200011b281f",37,"yes","yellows",5,3,1,2381
"5918774ba391f200011b281f",38,"yes","reds",19,17,0,3239
"5918774ba391f200011b281f",39,"yes","blues",17,15,1,1302
"5918774ba391f200011b281f",40,"yes","reds",17,19,1,2519
"5918774ba391f200011b281f",41,"yes","browns",12,14,0,2391
"5918774ba391f200011b281f",42,"yes","yellows",12,14,0,1631
"5918774ba391f200011b281f",43,"yes","yellows",19,17,1,846
"5918774ba391f200011b281f",44,"yes","reds",20,18,1,1344
"5918774ba391f200011b281f",45,"yes","browns",14,16,0,1145
"5918774ba391f200011b281f",46,"yes","browns",7,5,1,1087
"5918774ba391f200011b281f",47,"yes","yellows",13,15,0,1423
"5918774ba391f200011b281f",48,"yes","blues",3,5,1,2182
"5918774ba391f200011b281f",49,"yes","reds",5,3,1,2455
"5918774ba391f200011b281f",50,"yes","reds",11,9,1,1317
"5918774ba391f200011b281f",51,"yes","reds",9,11,0,2118
"5918774ba391f200011b281f",52,"yes","browns",6,8,0,2138
"5918774ba391f200011b281f",53,"yes","reds",6,4,1,1108
"5918774ba391f200011b281f",54,"yes","browns",18,20,0,1604
"5918774ba391f200011b281f",56,"yes","reds",7,9,0,1748
"5918774ba391f200011b281f",57,"yes","blues",18,20,0,2057
"5918774ba391f200011b281f",58,"yes","blues",9,11,0,1900
"5918774ba391f200011b281f",59,"yes","yellows",6,8,0,1590
"5918774ba391f200011b281f",60,"yes","yellows",20,18,1,1436
"5918774ba391f200011b281f",61,"yes","reds",3,5,0,917
"5918774ba391f200011b281f",62,"yes","browns",18,20,0,1126
"5918774ba391f200011b281f",63,"yes","blues",15,13,1,1847
"5918774ba391f200011b281f",64,"yes","browns",5,7,0,1975
"5918774ba391f200011b281f",65,"yes","yellows",3,1,1,1787
"5918774ba391f200011b281f",66,"yes","blues",4,6,1,1656
"5918774ba391f200011b281f",67,"yes","yellows",14,12,1,1773
"5918774ba391f200011b281f",68,"yes","reds",9,7,1,1215
"5918774ba391f200011b281f",69,"yes","yellows",15,17,0,2124
"5918774ba391f200011b281f",70,"yes","yellows",18,20,0,2327
"5918774ba391f200011b281f",71,"yes","yellows",16,18,1,3230
"5918774ba391f200011b281f",72,"yes","blues",19,17,1,1296
"5918774ba391f200011b281f",73,"yes","yellows",10,12,0,1260
"5918774ba391f200011b281f",74,"yes","blues",2,4,1,1159
"5918774ba391f200011b281f",75,"yes","browns",9,11,0,2357
"5918774ba391f200011b281f",76,"yes","blues",16,14,1,1326
"5918774ba391f200011b281f",77,"yes","blues",12,10,1,1334
"5918774ba391f200011b281f",78,"yes","reds",17,15,0,3742
"5918774ba391f200011b281f",79,"yes","browns",9,11,0,1976
"5918774ba391f200011b281f",80,"yes","browns",12,14,0,1189
"5918774ba391f200011b281f",81,"yes","blues",4,6,1,3163
"5918774ba391f200011b281f",82,"yes","blues",9,7,1,1022
"5918774ba391f200011b281f",83,"yes","yellows",5,3,1,2087
"5918774ba391f200011b281f",84,"yes","browns",4,6,1,1484
"5918774ba391f200011b281f",85,"yes","blues",6,8,0,1813
"5918774ba391f200011b281f",86,"yes","reds",3,5,0,2445
"5918774ba391f200011b281f",87,"yes","blues",7,5,1,1551
"5918774ba391f200011b281f",88,"yes","blues",15,17,0,1990
"5918774ba391f200011b281f",89,"yes","yellows",9,7,1,1262
"5918774ba391f200011b281f",90,"yes","browns",6,4,1,825
"5918774ba391f200011b281f",91,"yes","blues",3,1,1,1046
"5918774ba391f200011b281f",92,"yes","yellows",4,2,1,1277
"5918774ba391f200011b281f",93,"yes","yellows",12,10,1,1831
"5918774ba391f200011b281f",94,"yes","reds",10,12,0,3470
"5918774ba391f200011b281f",95,"yes","reds",13,15,0,2447
"5918774ba391f200011b281f",96,"yes","browns",19,17,1,1685
"5918774ba391f200011b281f",97,"yes","browns",9,7,1,2095
"5918774ba391f200011b281f",98,"yes","blues",18,20,0,1078
"5918774ba391f200011b281f",99,"yes","blues",20,18,1,2965
"5918774ba391f200011b281f",100,"yes","reds",15,17,0,3021
"5918774ba391f200011b281f",101,"yes","browns",19,17,1,1999
"5918774ba391f200011b281f",102,"yes","reds",13,11,1,2865
"5918774ba391f200011b281f",103,"yes","yellows",14,16,0,2694
"5918774ba391f200011b281f",104,"yes","blues",11,13,1,2094
"5918774ba391f200011b281f",105,"yes","yellows",19,17,1,2428
"5918774ba391f200011b281f",107,"yes","reds",8,10,1,3240
"5918774ba391f200011b281f",108,"yes","blues",1,3,1,1038
"5918774ba391f200011b281f",109,"yes","browns",16,18,0,1772
"5918774ba391f200011b281f",110,"yes","browns",20,18,1,1206
"5918774ba391f200011b281f",111,"yes","browns",17,19,1,2006
"5918774ba391f200011b281f",112,"yes","reds",16,14,1,1222
"5918774ba391f200011b281f",113,"yes","reds",16,14,1,2830
"5918774ba391f200011b281f",114,"yes","yellows",10,8,1,1042
"5918774ba391f200011b281f",115,"yes","browns",10,8,1,1478
"5918774ba391f200011b281f",116,"yes","blues",16,14,1,1310
"5918774ba391f200011b281f",117,"yes","yellows",17,19,0,2094
"5918774ba391f200011b281f",118,"yes","blues",14,16,1,2636
"5918774ba391f200011b281f",119,"yes","browns",3,5,1,3030
"5918774ba391f200011b281f",120,"yes","reds",4,2,1,2270
"5918774ba391f200011b281f",121,"yes","blues",7,5,1,1558
"5918774ba391f200011b281f",122,"yes","blues",9,7,1,1255
"5918774ba391f200011b281f",123,"yes","reds",15,13,0,3787
"5918774ba391f200011b281f",124,"yes","reds",3,1,1,1157
"5918774ba391f200011b281f",125,"yes","yellows",1,3,1,3006
"5918774ba391f200011b281f",126,"yes","yellows",4,6,0,2165
"5918774ba391f200011b281f",127,"yes","browns",11,9,1,2100
"5918774ba391f200011b281f",128,"yes","yellows",18,16,1,2524
"5918774ba391f200011b281f",129,"yes","reds",15,13,1,1347
"5918774ba391f200011b281f",130,"yes","reds",12,10,1,3205
"5918774ba391f200011b281f",131,"yes","reds",11,13,0,2221
"5918774ba391f200011b281f",132,"yes","yellows",13,11,1,2913
"5918774ba391f200011b281f",133,"yes","blues",5,7,1,1528
"5918774ba391f200011b281f",134,"yes","browns",18,16,1,2005
"5918774ba391f200011b281f",135,"yes","reds",12,14,1,2962
"5918774ba391f200011b281f",136,"yes","blues",16,18,1,1940
"5918774ba391f200011b281f",137,"yes","blues",9,11,1,2194
"5918774ba391f200011b281f",138,"yes","yellows",9,11,0,3558
"5918774ba391f200011b281f",139,"yes","reds",2,4,1,3515
"5918774ba391f200011b281f",140,"yes","blues",19,17,1,2134
"5918774ba391f200011b281f",141,"yes","blues",17,19,0,1548
"5918774ba391f200011b281f",142,"yes","yellows",17,19,0,2774
"5918774ba391f200011b281f",143,"yes","reds",18,20,0,3324
"5918774ba391f200011b281f",144,"yes","blues",18,16,1,1885
"5918774ba391f200011b281f",145,"yes","reds",14,12,1,1903
"5918774ba391f200011b281f",146,"yes","browns",9,7,1,1213
"5918774ba391f200011b281f",147,"yes","browns",2,4,0,2309
"5918774ba391f200011b281f",148,"yes","browns",5,7,1,5700
"5918774ba391f200011b281f",149,"yes","blues",11,9,1,1333
"5918774ba391f200011b281f",150,"yes","blues",20,18,1,2788
"5918774ba391f200011b281f",151,"yes","yellows",11,13,0,1508
"5918774ba391f200011b281f",152,"yes","blues",12,10,1,1326
"5918774ba391f200011b281f",153,"yes","reds",14,16,0,4581
"5918774ba391f200011b281f",154,"yes","browns",1,3,1,2211
"5918774ba391f200011b281f",155,"yes","blues",5,3,1,1317
"5918774ba391f200011b281f",156,"yes","yellows",4,2,1,2845
"5918774ba391f200011b281f",158,"yes","browns",10,12,0,1487
"5918774ba391f200011b281f",159,"yes","reds",1,3,0,1220
"5918774ba391f200011b281f",160,"yes","reds",11,13,0,1581
"5918774ba391f200011b281f",161,"yes","yellows",12,14,0,1148
"5918774ba391f200011b281f",162,"yes","yellows",10,12,0,2093
"5918774ba391f200011b281f",163,"yes","yellows",18,20,0,1061
"5918774ba391f200011b281f",164,"yes","reds",13,11,1,2948
"5918774ba391f200011b281f",165,"yes","reds",18,16,0,3208
"5918774ba391f200011b281f",166,"yes","browns",7,9,0,4255
"5918774ba391f200011b281f",167,"yes","yellows",3,1,1,2771
"5918774ba391f200011b281f",168,"yes","browns",5,3,1,1205
"5918774ba391f200011b281f",169,"yes","reds",1,3,1,2845
"5918774ba391f200011b281f",170,"yes","blues",6,4,1,4068
"5918774ba391f200011b281f",171,"yes","reds",11,9,1,1291
"5918774ba391f200011b281f",172,"yes","browns",6,8,1,1772
"5918774ba391f200011b281f",173,"yes","yellows",17,15,1,1139
"5918774ba391f200011b281f",174,"yes","browns",3,1,1,1035
"5918774ba391f200011b281f",175,"yes","yellows",3,5,0,1397
"5918774ba391f200011b281f",176,"yes","reds",17,15,1,3341
"5918774ba391f200011b281f",177,"yes","reds",4,2,1,2386
"5918774ba391f200011b281f",178,"yes","reds",4,6,1,1829
"5918774ba391f200011b281f",179,"yes","blues",8,10,1,1932
"5918774ba391f200011b281f",180,"yes","yellows",11,9,1,1492
"5918774ba391f200011b281f",181,"yes","browns",12,10,1,1379
"5918774ba391f200011b281f",182,"yes","reds",18,16,0,3273
"5918774ba391f200011b281f",183,"yes","browns",1,3,1,1426
"5918774ba391f200011b281f",184,"yes","reds",5,7,1,1844
"5918774ba391f200011b281f",185,"yes","blues",17,19,1,2908
"5918774ba391f200011b281f",186,"yes","reds",14,12,1,2060
"5918774ba391f200011b281f",187,"yes","browns",14,16,0,2325
"5918774ba391f200011b281f",188,"yes","yellows",18,16,1,1220
"5918774ba391f200011b281f",189,"yes","browns",13,11,1,1131
"5918774ba391f200011b281f",190,"yes","blues",15,17,0,3765
"5918774ba391f200011b281f",191,"yes","browns",7,9,1,3522
"5918774ba391f200011b281f",192,"yes","reds",4,6,1,2155
"5918774ba391f200011b281f",193,"yes","browns",15,17,1,3724
"5918774ba391f200011b281f",194,"yes","blues",18,16,1,3931
"5918774ba391f200011b281f",195,"yes","browns",11,13,0,3594
"5918774ba391f200011b281f",196,"yes","blues",14,12,1,1435
"5918774ba391f200011b281f",197,"yes","yellows",1,3,0,1371
"5918774ba391f200011b281f",198,"yes","browns",8,10,0,3611
"5918774ba391f200011b281f",199,"yes","blues",8,6,1,1106
"5918774ba391f200011b281f",200,"yes","yellows",3,5,1,2738
"5918774ba391f200011b281f",201,"yes","yellows",15,13,1,1130
"5918774ba391f200011b281f",202,"yes","yellows",5,7,1,1931
"5918774ba391f200011b281f",203,"yes","reds",12,10,1,1762
"5918774ba391f200011b281f",204,"yes","browns",5,3,1,1749
"5918774ba391f200011b281f",205,"yes","yellows",2,4,1,1340
"5918774ba391f200011b281f",206,"yes","blues",5,7,1,1660
"5918774ba391f200011b281f",207,"yes","yellows",2,4,1,1478
"5918774ba391f200011b281f",209,"yes","yellows",6,8,1,1819
"5918774ba391f200011b281f",210,"yes","browns",14,12,1,2423
"5918774ba391f200011b281f",211,"yes","browns",2,4,1,2412
"5918774ba391f200011b281f",212,"yes","reds",18,20,0,2841
"5918774ba391f200011b281f",213,"yes","reds",20,18,1,3802
"5918774ba391f200011b281f",214,"yes","blues",13,11,1,2202
"5918774ba391f200011b281f",215,"yes","blues",11,9,1,1031
"5918774ba391f200011b281f",216,"yes","browns",15,17,0,2828
"5918774ba391f200011b281f",217,"yes","browns",4,2,1,1146
"5918774ba391f200011b281f",218,"yes","reds",19,17,1,3573
"5918774ba391f200011b281f",219,"yes","browns",3,1,1,3227
"5918774ba391f200011b281f",220,"yes","browns",16,14,1,1617
"5918774ba391f200011b281f",221,"yes","browns",18,16,1,1298
"5918774ba391f200011b281f",222,"yes","blues",11,13,1,1665
"5918774ba391f200011b281f",223,"yes","yellows",9,7,1,1420
"5918774ba391f200011b281f",224,"yes","yellows",8,10,0,5101
"5918774ba391f200011b281f",225,"yes","yellows",11,9,1,2449
"5918774ba391f200011b281f",226,"yes","yellows",16,18,0,2185
"5918774ba391f200011b281f",227,"yes","blues",1,3,1,1163
"5918774ba391f200011b281f",228,"yes","reds",9,11,1,2674
"5918774ba391f200011b281f",229,"yes","blues",7,9,1,5069
"5918774ba391f200011b281f",230,"yes","blues",3,1,1,1219
"5918774ba391f200011b281f",231,"yes","blues",14,12,1,2339
"5918774ba391f200011b281f",232,"yes","reds",17,19,0,4024
"5918774ba391f200011b281f",233,"yes","browns",13,15,1,2858
"5918774ba391f200011b281f",234,"yes","blues",3,5,1,1519
"5918774ba391f200011b281f",235,"yes","blues",13,15,1,2940
"5918774ba391f200011b281f",236,"yes","reds",16,18,0,3682
"5918774ba391f200011b281f",237,"yes","browns",11,13,1,3762
"5918774ba391f200011b281f",238,"yes","reds",7,5,1,2002
"5918774ba391f200011b281f",239,"yes","yellows",7,9,1,3266
"5918774ba391f200011b281f",240,"yes","blues",10,12,1,2659
"5918774ba391f200011b281f",241,"yes","yellows",11,13,0,1555
"5918774ba391f200011b281f",242,"yes","browns",13,15,1,2514
"5918774ba391f200011b281f",243,"yes","browns",4,2,1,1434
"5918774ba391f200011b281f",244,"yes","blues",14,16,0,2747
"5918774ba391f200011b281f",245,"yes","reds",3,1,1,1738
"5918774ba391f200011b281f",246,"yes","browns",8,10,0,1437
"5918774ba391f200011b281f",247,"yes","reds",13,15,0,2499
"5918774ba391f200011b281f",248,"yes","yellows",8,6,1,2066
"5918774ba391f200011b281f",249,"yes","yellows",7,5,1,2402
"5918774ba391f200011b281f",250,"yes","browns",15,13,1,1649
"5918774ba391f200011b281f",251,"yes","blues",8,6,1,2185
"5918774ba391f200011b281f",252,"yes","reds",12,14,1,2603
"5918774ba391f200011b281f",253,"yes","browns",16,18,0,2865
"5918774ba391f200011b281f",254,"yes","blues",5,3,1,2521
"5918774ba391f200011b281f",255,"yes","yellows",8,10,0,1706
"5918774ba391f200011b281f",256,"yes","yellows",15,17,0,2188
"5918774ba391f200011b281f",257,"yes","browns",6,4,1,1706
"5918774ba391f200011b281f",258,"yes","browns",3,5,1,1888
"5918774ba391f200011b281f",260,"yes","browns",16,14,1,1923
"5918774ba391f200011b281f",261,"yes","browns",7,5,1,2416
"5918774ba391f200011b281f",262,"yes","yellows",6,4,1,1419
"5918774ba391f200011b281f",263,"yes","blues",10,12,1,1418
"5918774ba391f200011b281f",264,"yes","browns",11,9,1,1806
"5918774ba391f200011b281f",265,"yes","browns",14,12,1,1489
"5918774ba391f200011b281f",266,"yes","browns",17,15,1,1363
"5918774ba391f200011b281f",267,"yes","yellows",14,12,1,2057
"5918774ba391f200011b281f",268,"yes","blues",12,14,1,1193
"5918774ba391f200011b281f",269,"yes","blues",2,4,1,1722
"5918774ba391f200011b281f",270,"yes","blues",7,9,1,2385
"5918774ba391f200011b281f",271,"yes","browns",8,6,1,1249
"5918774ba391f200011b281f",272,"yes","reds",8,10,1,1570
"5918774ba391f200011b281f",273,"yes","browns",17,15,1,1239
"5918774ba391f200011b281f",274,"yes","reds",8,6,1,1697
"5918774ba391f200011b281f",275,"yes","yellows",8,6,1,1753
"5918774ba391f200011b281f",276,"yes","browns",13,11,1,1405
"5918774ba391f200011b281f",277,"yes","reds",7,9,1,1762
"5918774ba391f200011b281f",278,"yes","reds",14,16,0,2488
"5918774ba391f200011b281f",279,"yes","reds",10,8,1,1384
"5918774ba391f200011b281f",280,"yes","browns",10,8,1,1616
"5918774ba391f200011b281f",281,"yes","reds",10,8,1,1721
"5918774ba391f200011b281f",282,"yes","yellows",9,11,0,1842
"5918774ba391f200011b281f",283,"yes","blues",17,15,1,1343
"5918774ba391f200011b281f",284,"yes","yellows",7,5,1,1280
"5918774ba391f200011b281f",285,"yes","browns",12,10,1,1569
"5918774ba391f200011b281f",286,"yes","reds",6,8,1,2897
"5918774ba391f200011b281f",287,"yes","blues",6,4,1,1209
"5918774ba391f200011b281f",288,"yes","yellows",14,16,0,1328
"5918774ba391f200011b281f",289,"yes","blues",4,2,1,1033
"5918774ba391f200011b281f",290,"yes","blues",13,15,0,4050
"5918774ba391f200011b281f",291,"yes","reds",5,3,1,1553
"5918774ba391f200011b281f",292,"yes","yellows",5,7,1,2697
"5918774ba391f200011b281f",293,"yes","yellows",16,14,1,1554
"5918774ba391f200011b281f",294,"yes","browns",20,18,1,1833
"5918774ba391f200011b281f",295,"yes","reds",6,4,1,1337
"5918774ba391f200011b281f",296,"yes","browns",4,6,1,2665
"5918774ba391f200011b281f",297,"yes","blues",13,11,1,1847
"5918774ba391f200011b281f",298,"yes","reds",5,7,0,2065
"59f096e47f3d71000171e46b",6,"yes","browns",17,15,0,1031.20000004768
"59f096e47f3d71000171e46b",7,"yes","reds",12,14,1,1194.20000004768
"59f096e47f3d71000171e46b",8,"yes","browns",9,11,0,1431.20000004768
"59f096e47f3d71000171e46b",9,"yes","blues",15,13,1,1000.40000009537
"59f096e47f3d71000171e46b",10,"yes","reds",6,4,1,1012.79999995232
"59f096e47f3d71000171e46b",11,"yes","yellows",7,5,1,1144.5
"59f096e47f3d71000171e46b",12,"yes","reds",19,17,1,1287.40000009537
"59f096e47f3d71000171e46b",13,"yes","reds",4,2,1,1152.59999990463
"59f096e47f3d71000171e46b",14,"yes","yellows",11,9,1,1012.90000009537
"59f096e47f3d71000171e46b",15,"yes","browns",15,13,1,1263.29999995232
"59f096e47f3d71000171e46b",16,"yes","blues",17,15,1,1133
"59f096e47f3d71000171e46b",17,"yes","blues",6,8,0,835.299999952316
"59f096e47f3d71000171e46b",18,"yes","browns",16,14,1,2011
"59f096e47f3d71000171e46b",19,"yes","yellows",14,12,1,1448.70000004768
"59f096e47f3d71000171e46b",20,"yes","reds",14,12,1,1162.19999980927
"59f096e47f3d71000171e46b",21,"yes","blues",11,13,0,1408
"59f096e47f3d71000171e46b",22,"yes","yellows",20,18,1,1109.70000004768
"59f096e47f3d71000171e46b",23,"yes","yellows",13,11,1,1504.20000004768
"59f096e47f3d71000171e46b",24,"yes","browns",14,16,0,1386.09999990463
"59f096e47f3d71000171e46b",25,"yes","reds",10,12,0,1280.10000014305
"59f096e47f3d71000171e46b",26,"yes","browns",12,14,0,1073.79999995232
"59f096e47f3d71000171e46b",27,"yes","reds",7,9,0,997.599999904633
"59f096e47f3d71000171e46b",28,"yes","reds",15,17,1,887.799999952316
"59f096e47f3d71000171e46b",29,"yes","reds",15,13,1,1636.90000009537
"59f096e47f3d71000171e46b",30,"yes","yellows",11,13,0,1447.90000009537
"59f096e47f3d71000171e46b",31,"yes","yellows",15,17,0,961.799999952316
"59f096e47f3d71000171e46b",32,"yes","yellows",19,17,1,1003
"59f096e47f3d71000171e46b",33,"yes","browns",1,3,1,1468.5
"59f096e47f3d71000171e46b",34,"yes","blues",3,5,1,1084.90000009537
"59f096e47f3d71000171e46b",35,"yes","blues",7,5,1,983.399999856949
"59f096e47f3d71000171e46b",36,"yes","browns",4,2,1,947.900000095367
"59f096e47f3d71000171e46b",37,"yes","yellows",4,6,0,1420.70000004768
"59f096e47f3d71000171e46b",38,"yes","yellows",18,20,1,2548.79999995232
"59f096e47f3d71000171e46b",39,"yes","reds",8,6,1,1575
"59f096e47f3d71000171e46b",40,"yes","reds",20,18,1,1707.59999990463
"59f096e47f3d71000171e46b",41,"yes","reds",13,15,0,1750.19999980927
"59f096e47f3d71000171e46b",42,"yes","blues",11,9,1,970.900000095367
"59f096e47f3d71000171e46b",43,"yes","browns",9,7,1,1538.70000004768
"59f096e47f3d71000171e46b",44,"yes","reds",9,7,1,1360.90000009537
"59f096e47f3d71000171e46b",45,"yes","browns",10,12,0,839
"59f096e47f3d71000171e46b",46,"yes","browns",17,19,1,1686.30000019073
"59f096e47f3d71000171e46b",47,"yes","browns",19,17,1,851.200000047684
"59f096e47f3d71000171e46b",48,"yes","yellows",7,5,1,918.5
"59f096e47f3d71000171e46b",49,"yes","blues",10,8,1,895.599999904633
"59f096e47f3d71000171e46b",50,"yes","reds",17,19,1,1252.5
"59f096e47f3d71000171e46b",51,"yes","reds",8,10,1,1391.90000009537
"59f096e47f3d71000171e46b",52,"yes","yellows",18,20,1,1839.90000009537
"59f096e47f3d71000171e46b",53,"yes","reds",7,5,1,2437.59999990463
"59f096e47f3d71000171e46b",54,"yes","blues",11,13,0,952.900000095367
"59f096e47f3d71000171e46b",56,"yes","browns",17,19,0,879
"59f096e47f3d71000171e46b",57,"yes","yellows",6,4,1,1008.60000014305
"59f096e47f3d71000171e46b",58,"yes","browns",15,17,0,814.599999904633
"59f096e47f3d71000171e46b",59,"yes","reds",1,3,0,849.700000047684
"59f096e47f3d71000171e46b",60,"yes","browns",10,8,1,724.299999952316
"59f096e47f3d71000171e46b",61,"yes","blues",6,4,1,676.700000047684
"59f096e47f3d71000171e46b",62,"yes","blues",20,18,1,1241.5
"59f096e47f3d71000171e46b",63,"yes","reds",4,6,0,830.699999809265
"59f096e47f3d71000171e46b",64,"yes","yellows",5,7,1,1232.59999990463
"59f096e47f3d71000171e46b",65,"yes","blues",12,14,0,885.799999952316
"59f096e47f3d71000171e46b",66,"yes","yellows",14,16,1,1402.19999980927
"59f096e47f3d71000171e46b",67,"yes","yellows",1,3,1,1141.59999990463
"59f096e47f3d71000171e46b",68,"yes","reds",9,11,1,2224.20000004768
"59f096e47f3d71000171e46b",69,"yes","reds",7,5,1,999.700000047684
"59f096e47f3d71000171e46b",70,"yes","reds",16,14,1,2191.40000009537
"59f096e47f3d71000171e46b",71,"yes","reds",19,17,1,1910.60000014305
"59f096e47f3d71000171e46b",72,"yes","yellows",16,18,0,1167.5
"59f096e47f3d71000171e46b",73,"yes","yellows",17,15,1,2458.10000014305
"59f096e47f3d71000171e46b",74,"yes","yellows",5,7,0,1766.90000009537
"59f096e47f3d71000171e46b",75,"yes","browns",14,12,1,962.5
"59f096e47f3d71000171e46b",76,"yes","reds",12,14,0,1183.40000009537
"59f096e47f3d71000171e46b",77,"yes","blues",7,9,1,1763.29999995232
"59f096e47f3d71000171e46b",78,"yes","blues",13,15,0,767.800000190735
"59f096e47f3d71000171e46b",79,"yes","browns",13,15,0,954.800000190735
"59f096e47f3d71000171e46b",80,"yes","browns",17,15,1,710.799999952316
"59f096e47f3d71000171e46b",81,"yes","reds",14,12,1,1233.29999995232
"59f096e47f3d71000171e46b",82,"yes","browns",15,13,1,747.800000190735
"59f096e47f3d71000171e46b",83,"yes","browns",11,13,0,728.599999904633
"59f096e47f3d71000171e46b",84,"yes","blues",1,3,1,829.900000095367
"59f096e47f3d71000171e46b",85,"yes","browns",9,11,1,1164.5
"59f096e47f3d71000171e46b",86,"yes","blues",8,6,1,1033.40000009537
"59f096e47f3d71000171e46b",87,"yes","reds",14,16,1,1378.5
"59f096e47f3d71000171e46b",88,"yes","reds",18,16,1,1248.79999995232
"59f096e47f3d71000171e46b",89,"yes","reds",16,18,0,900.400000095367
"59f096e47f3d71000171e46b",90,"yes","yellows",18,16,1,940.599999904633
"59f096e47f3d71000171e46b",91,"yes","blues",15,17,0,1353.09999990463
"59f096e47f3d71000171e46b",92,"yes","blues",16,18,0,1268.40000009537
"59f096e47f3d71000171e46b",93,"yes","reds",2,4,0,1246.39999985695
"59f096e47f3d71000171e46b",94,"yes","yellows",10,8,1,2244.89999985695
"59f096e47f3d71000171e46b",95,"yes","reds",18,20,0,828.700000047684
"59f096e47f3d71000171e46b",96,"yes","yellows",6,4,1,2124.10000014305
"59f096e47f3d71000171e46b",97,"yes","yellows",4,6,1,1500.79999995232
"59f096e47f3d71000171e46b",98,"yes","blues",3,1,0,1431.5
"59f096e47f3d71000171e46b",99,"yes","yellows",12,14,1,2483.40000009537
"59f096e47f3d71000171e46b",100,"yes","blues",19,17,1,728.400000095367
"59f096e47f3d71000171e46b",101,"yes","browns",16,18,0,619.199999809265
"59f096e47f3d71000171e46b",102,"yes","browns",18,20,1,1294
"59f096e47f3d71000171e46b",103,"yes","blues",18,16,1,2701.30000019073
"59f096e47f3d71000171e46b",104,"yes","reds",8,6,1,751.599999904633
"59f096e47f3d71000171e46b",105,"yes","browns",18,16,1,870.199999809265
"59f096e47f3d71000171e46b",107,"yes","reds",5,3,1,1106.40000009537
"59f096e47f3d71000171e46b",108,"yes","yellows",10,12,1,1511.5
"59f096e47f3d71000171e46b",109,"yes","browns",10,8,1,942.400000095367
"59f096e47f3d71000171e46b",110,"yes","browns",19,17,1,1081.10000014305
"59f096e47f3d71000171e46b",111,"yes","yellows",13,11,1,1482.90000009537
"59f096e47f3d71000171e46b",112,"yes","blues",2,4,1,938.399999856949
"59f096e47f3d71000171e46b",113,"yes","yellows",11,9,1,1043.5
"59f096e47f3d71000171e46b",114,"yes","browns",4,6,1,1475.40000009537
"59f096e47f3d71000171e46b",115,"yes","blues",14,16,1,2051.09999990463
"59f096e47f3d71000171e46b",116,"yes","browns",5,3,1,979.400000095367
"59f096e47f3d71000171e46b",117,"yes","yellows",8,6,1,1193.20000004768
"59f096e47f3d71000171e46b",118,"yes","blues",11,9,1,1074
"59f096e47f3d71000171e46b",119,"yes","blues",4,6,1,878.200000047684
"59f096e47f3d71000171e46b",120,"yes","blues",18,20,1,3199.29999995232
"59f096e47f3d71000171e46b",121,"yes","yellows",12,10,1,1573.40000009537
"59f096e47f3d71000171e46b",122,"yes","blues",12,10,1,1474
"59f096e47f3d71000171e46b",123,"yes","yellows",15,13,1,937.699999809265
"59f096e47f3d71000171e46b",124,"yes","browns",14,16,0,838.600000143051
"59f096e47f3d71000171e46b",125,"yes","yellows",9,11,1,1106.5
"59f096e47f3d71000171e46b",126,"yes","browns",6,8,1,869
"59f096e47f3d71000171e46b",127,"yes","browns",7,9,1,900.599999904633
"59f096e47f3d71000171e46b",128,"yes","yellows",15,17,1,1064.79999995232
"59f096e47f3d71000171e46b",129,"yes","blues",8,10,1,895.099999904633
"59f096e47f3d71000171e46b",130,"yes","blues",20,18,1,3010.10000014305
"59f096e47f3d71000171e46b",131,"yes","browns",5,7,0,1335.29999995232
"59f096e47f3d71000171e46b",132,"yes","reds",10,12,0,2274.59999990463
"59f096e47f3d71000171e46b",133,"yes","yellows",17,15,1,838.099999904633
"59f096e47f3d71000171e46b",134,"yes","reds",17,19,1,3058.90000009537
"59f096e47f3d71000171e46b",135,"yes","yellows",18,16,1,1964.59999990463
"59f096e47f3d71000171e46b",136,"yes","yellows",10,8,1,1511.5
"59f096e47f3d71000171e46b",137,"yes","reds",17,15,0,1954.60000014305
"59f096e47f3d71000171e46b",138,"yes","blues",6,8,1,784.900000095367
"59f096e47f3d71000171e46b",139,"yes","browns",7,5,1,673.200000047684
"59f096e47f3d71000171e46b",140,"yes","blues",8,6,0,830.400000095367
"59f096e47f3d71000171e46b",141,"yes","yellows",7,9,1,1415.70000004768
"59f096e47f3d71000171e46b",142,"yes","blues",13,15,1,1368.60000014305
"59f096e47f3d71000171e46b",143,"yes","browns",6,4,1,830.5
"59f096e47f3d71000171e46b",144,"yes","yellows",17,19,0,799.5
"59f096e47f3d71000171e46b",145,"yes","yellows",6,8,1,2203.39999985695
"59f096e47f3d71000171e46b",146,"yes","blues",13,11,1,1581.70000004768
"59f096e47f3d71000171e46b",147,"yes","yellows",8,6,1,1987.39999985695
"59f096e47f3d71000171e46b",148,"yes","reds",4,2,1,1428.09999990463
"59f096e47f3d71000171e46b",149,"yes","blues",6,4,1,1055.60000014305
"59f096e47f3d71000171e46b",150,"yes","blues",16,14,1,632.5
"59f096e47f3d71000171e46b",151,"yes","blues",16,14,1,660.200000047684
"59f096e47f3d71000171e46b",152,"yes","reds",12,10,1,1299.40000009537
"59f096e47f3d71000171e46b",153,"yes","yellows",17,19,1,1469.70000004768
"59f096e47f3d71000171e46b",154,"yes","yellows",8,10,1,1564.70000004768
"59f096e47f3d71000171e46b",155,"yes","browns",8,6,1,2023.5
"59f096e47f3d71000171e46b",156,"yes","blues",12,10,1,813.099999904633
"59f096e47f3d71000171e46b",158,"yes","yellows",19,17,1,509.299999952316
"59f096e47f3d71000171e46b",159,"yes","yellows",13,15,1,769.5
"59f096e47f3d71000171e46b",160,"yes","yellows",3,1,1,1042.20000004768
"59f096e47f3d71000171e46b",161,"yes","browns",12,10,1,828.400000095367
"59f096e47f3d71000171e46b",162,"yes","yellows",9,7,1,808
"59f096e47f3d71000171e46b",163,"yes","browns",12,10,1,674.599999904633
"59f096e47f3d71000171e46b",164,"yes","browns",11,9,1,683
"59f096e47f3d71000171e46b",165,"yes","yellows",16,14,1,749.399999856949
"59f096e47f3d71000171e46b",166,"yes","browns",14,12,1,571.800000190735
"59f096e47f3d71000171e46b",167,"yes","reds",12,10,1,993.5
"59f096e47f3d71000171e46b",168,"yes","reds",5,3,1,1967.59999990463
"59f096e47f3d71000171e46b",169,"yes","yellows",3,1,1,1231.89999985695
"59f096e47f3d71000171e46b",170,"yes","blues",17,15,1,793.200000047684
"59f096e47f3d71000171e46b",171,"yes","reds",5,7,1,1463.59999990463
"59f096e47f3d71000171e46b",172,"yes","yellows",12,14,0,1143.29999995232
"59f096e47f3d71000171e46b",173,"yes","reds",11,13,1,1386.39999985695
"59f096e47f3d71000171e46b",174,"yes","browns",13,11,1,1050.09999990463
"59f096e47f3d71000171e46b",175,"yes","blues",14,12,1,907.700000047684
"59f096e47f3d71000171e46b",176,"yes","reds",11,13,1,1633.5
"59f096e47f3d71000171e46b",177,"yes","browns",15,17,0,794.200000047684
"59f096e47f3d71000171e46b",178,"yes","blues",10,12,1,1419.20000004768
"59f096e47f3d71000171e46b",179,"yes","blues",12,14,1,1209.20000004768
"59f096e47f3d71000171e46b",180,"yes","reds",9,7,0,1534
"59f096e47f3d71000171e46b",181,"yes","browns",13,11,1,946.400000095367
"59f096e47f3d71000171e46b",182,"yes","browns",11,9,1,929.899999856949
"59f096e47f3d71000171e46b",183,"yes","yellows",3,5,1,2052.90000009537
"59f096e47f3d71000171e46b",184,"yes","blues",8,10,1,1022.29999995232
"59f096e47f3d71000171e46b",185,"yes","yellows",8,10,1,2788.39999985695
"59f096e47f3d71000171e46b",186,"yes","browns",3,5,1,1102.69999980927
"59f096e47f3d71000171e46b",187,"yes","blues",19,17,1,1167.29999995232
"59f096e47f3d71000171e46b",188,"yes","reds",15,13,1,2097.70000004768
"59f096e47f3d71000171e46b",189,"yes","browns",13,15,1,1707.89999985695
"59f096e47f3d71000171e46b",190,"yes","browns",1,3,1,1426.29999995232
"59f096e47f3d71000171e46b",191,"yes","reds",3,1,1,1413.40000009537
"59f096e47f3d71000171e46b",192,"yes","blues",14,16,0,791
"59f096e47f3d71000171e46b",193,"yes","reds",15,17,0,2835.09999990463
"59f096e47f3d71000171e46b",194,"yes","browns",7,9,0,818
"59f096e47f3d71000171e46b",195,"yes","browns",8,10,1,2179
"59f096e47f3d71000171e46b",196,"yes","yellows",4,2,1,1111.20000004768
"59f096e47f3d71000171e46b",197,"yes","yellows",11,13,0,1290.40000009537
"59f096e47f3d71000171e46b",198,"yes","reds",10,8,1,2153.09999990463
"59f096e47f3d71000171e46b",199,"yes","blues",5,7,1,868
"59f096e47f3d71000171e46b",200,"yes","browns",16,14,1,682
"59f096e47f3d71000171e46b",201,"yes","reds",8,10,0,686.599999904633
"59f096e47f3d71000171e46b",202,"yes","blues",14,12,1,725.399999856949
"59f096e47f3d71000171e46b",203,"yes","reds",13,11,1,698.5
"59f096e47f3d71000171e46b",204,"yes","browns",20,18,1,893.299999952316
"59f096e47f3d71000171e46b",205,"yes","yellows",2,4,1,2051.59999990463
"59f096e47f3d71000171e46b",206,"yes","reds",13,15,1,2118.29999995232
"59f096e47f3d71000171e46b",207,"yes","yellows",2,4,1,1965.39999985695
"59f096e47f3d71000171e46b",209,"yes","reds",11,9,1,537.400000095367
"59f096e47f3d71000171e46b",210,"yes","reds",3,1,0,1148.09999990463
"59f096e47f3d71000171e46b",211,"yes","browns",6,4,1,719.200000047684
"59f096e47f3d71000171e46b",212,"yes","reds",10,8,1,722
"59f096e47f3d71000171e46b",213,"yes","yellows",3,5,1,1322.19999980927
"59f096e47f3d71000171e46b",214,"yes","yellows",1,3,1,924.700000047684
"59f096e47f3d71000171e46b",215,"yes","browns",18,16,1,711.699999809265
"59f096e47f3d71000171e46b",216,"yes","yellows",12,10,1,653.599999904633
"59f096e47f3d71000171e46b",217,"yes","blues",17,19,0,1060.40000009537
"59f096e47f3d71000171e46b",218,"yes","browns",5,7,0,936.800000190735
"59f096e47f3d71000171e46b",219,"yes","browns",5,3,1,690.200000047684
"59f096e47f3d71000171e46b",220,"yes","yellows",14,16,0,1054.70000004768
"59f096e47f3d71000171e46b",221,"yes","yellows",10,12,1,671.799999952316
"59f096e47f3d71000171e46b",222,"yes","browns",3,1,0,1263.40000009537
"59f096e47f3d71000171e46b",223,"yes","blues",7,9,1,779.199999809265
"59f096e47f3d71000171e46b",224,"yes","browns",20,18,1,620.399999856949
"59f096e47f3d71000171e46b",225,"yes","reds",4,6,1,1243.19999980927
"59f096e47f3d71000171e46b",226,"yes","yellows",4,2,1,1825.20000004768
"59f096e47f3d71000171e46b",227,"yes","browns",4,6,0,865.600000143051
"59f096e47f3d71000171e46b",228,"yes","reds",16,18,1,1930.70000004768
"59f096e47f3d71000171e46b",229,"yes","reds",7,9,1,1434.90000009537
"59f096e47f3d71000171e46b",230,"yes","browns",8,10,1,1488.09999990463
"59f096e47f3d71000171e46b",231,"yes","reds",2,4,1,1593.60000014305
"59f096e47f3d71000171e46b",232,"yes","yellows",9,11,1,1049.59999990463
"59f096e47f3d71000171e46b",233,"yes","browns",4,2,1,851.100000143051
"59f096e47f3d71000171e46b",234,"yes","reds",1,3,1,1691.89999985695
"59f096e47f3d71000171e46b",235,"yes","browns",16,18,1,2259.89999985695
"59f096e47f3d71000171e46b",236,"yes","blues",4,2,1,1546.79999995232
"59f096e47f3d71000171e46b",237,"yes","blues",15,17,1,2130.5
"59f096e47f3d71000171e46b",238,"yes","yellows",9,7,1,830.299999952316
"59f096e47f3d71000171e46b",239,"yes","blues",3,1,1,1250
"59f096e47f3d71000171e46b",240,"yes","blues",2,4,1,979.099999904633
"59f096e47f3d71000171e46b",241,"yes","yellows",14,12,1,957
"59f096e47f3d71000171e46b",242,"yes","yellows",16,14,0,2126.70000004768
"59f096e47f3d71000171e46b",243,"yes","reds",14,16,0,2340.79999995232
"59f096e47f3d71000171e46b",244,"yes","reds",5,7,1,1372.09999990463
"59f096e47f3d71000171e46b",245,"yes","reds",3,5,1,3046.20000004768
"59f096e47f3d71000171e46b",246,"yes","blues",3,5,1,676
"59f096e47f3d71000171e46b",247,"yes","reds",17,15,1,750.899999856949
"59f096e47f3d71000171e46b",248,"yes","reds",6,8,1,1486.70000004768
"59f096e47f3d71000171e46b",249,"yes","blues",5,3,1,1076.29999995232
"59f096e47f3d71000171e46b",250,"yes","browns",7,5,1,2380.39999985695
"59f096e47f3d71000171e46b",251,"yes","browns",18,20,0,1384
"59f096e47f3d71000171e46b",252,"yes","yellows",7,9,0,1144.29999995232
"59f096e47f3d71000171e46b",253,"yes","browns",3,5,1,1740
"59f096e47f3d71000171e46b",254,"yes","blues",5,7,1,1136.29999995232
"59f096e47f3d71000171e46b",255,"yes","browns",2,4,1,1353.5
"59f096e47f3d71000171e46b",256,"yes","blues",18,16,1,940
"59f096e47f3d71000171e46b",257,"yes","browns",2,4,1,1880
"59f096e47f3d71000171e46b",258,"yes","yellows",5,3,1,1726.70000004768
"59f096e47f3d71000171e46b",260,"yes","reds",6,8,1,681.200000047684
"59f096e47f3d71000171e46b",261,"yes","yellows",13,15,0,737.199999809265
"59f096e47f3d71000171e46b",262,"yes","blues",16,18,1,1847
"59f096e47f3d71000171e46b",263,"yes","blues",5,3,1,911.5
"59f096e47f3d71000171e46b",264,"yes","blues",9,7,1,688.299999952316
"59f096e47f3d71000171e46b",265,"yes","blues",4,6,1,775.399999856949
"59f096e47f3d71000171e46b",266,"yes","browns",3,1,1,723.899999856949
"59f096e47f3d71000171e46b",267,"yes","reds",20,18,1,1224
"59f096e47f3d71000171e46b",268,"yes","reds",13,11,1,1218.70000004768
"59f096e47f3d71000171e46b",269,"yes","blues",18,20,1,2823.29999995232
"59f096e47f3d71000171e46b",270,"yes","blues",7,5,1,1281.70000004768
"59f096e47f3d71000171e46b",271,"yes","reds",18,16,0,2324.09999990463
"59f096e47f3d71000171e46b",272,"yes","blues",1,3,1,1282
"59f096e47f3d71000171e46b",273,"yes","yellows",5,3,1,1076.20000004768
"59f096e47f3d71000171e46b",274,"yes","yellows",15,13,1,825.200000047684
"59f096e47f3d71000171e46b",275,"yes","blues",9,11,1,1695.20000004768
"59f096e47f3d71000171e46b",276,"yes","blues",10,8,1,893.599999904633
"59f096e47f3d71000171e46b",277,"yes","browns",6,8,0,1871.70000004768
"59f096e47f3d71000171e46b",278,"yes","browns",10,12,0,1103.19999980927
"59f096e47f3d71000171e46b",279,"yes","blues",9,7,1,788.100000143051
"59f096e47f3d71000171e46b",280,"yes","yellows",20,18,1,691.699999809265
"59f096e47f3d71000171e46b",281,"yes","reds",3,5,1,2498.40000009537
"59f096e47f3d71000171e46b",282,"yes","browns",9,7,1,1487.5
"59f096e47f3d71000171e46b",283,"yes","yellows",16,18,1,2111.69999980927
"59f096e47f3d71000171e46b",284,"yes","blues",15,13,1,983.799999952316
"59f096e47f3d71000171e46b",285,"yes","browns",12,14,1,1049.69999980927
"59f096e47f3d71000171e46b",286,"yes","reds",16,14,0,3177.09999990463
"59f096e47f3d71000171e46b",287,"yes","reds",9,11,1,1129.90000009537
"59f096e47f3d71000171e46b",288,"yes","yellows",6,8,1,1202.59999990463
"59f096e47f3d71000171e46b",289,"yes","blues",17,19,1,1743.09999990463
"59f096e47f3d71000171e46b",290,"yes","reds",18,20,1,4248.5
"59f096e47f3d71000171e46b",291,"yes","browns",8,6,1,765.900000095367
"59f096e47f3d71000171e46b",292,"yes","blues",4,2,1,1010.79999995232
"59f096e47f3d71000171e46b",293,"yes","blues",13,11,0,975.299999952316
"59f096e47f3d71000171e46b",294,"yes","blues",9,11,1,1114.90000009537
"59f096e47f3d71000171e46b",295,"yes","reds",11,9,0,4374.20000004768
"59f096e47f3d71000171e46b",296,"yes","blues",10,12,0,1407.69999980927
"59f096e47f3d71000171e46b",297,"yes","browns",11,13,0,836.900000095367
"59f096e47f3d71000171e46b",298,"yes","reds",6,4,1,697.899999856949
"5a28738fb4a5de00011af471",6,"yes","yellows",6,8,0,1893.80000001192
"5a28738fb4a5de00011af471",7,"yes","reds",7,9,1,2799.5
"5a28738fb4a5de00011af471",8,"yes","browns",16,14,1,1829.60000002384
"5a28738fb4a5de00011af471",9,"yes","yellows",13,15,1,1524.40000003576
"5a28738fb4a5de00011af471",10,"yes","yellows",9,11,1,1166.19999998808
"5a28738fb4a5de00011af471",11,"yes","blues",14,16,1,1266.69999998808
"5a28738fb4a5de00011af471",12,"yes","blues",10,8,1,1792.09999996424
"5a28738fb4a5de00011af471",13,"yes","yellows",3,1,1,1432
"5a28738fb4a5de00011af471",14,"yes","reds",5,3,1,1538.19999998808
"5a28738fb4a5de00011af471",15,"yes","reds",3,5,1,1234.80000001192
"5a28738fb4a5de00011af471",16,"yes","yellows",11,13,1,1329.80000001192
"5a28738fb4a5de00011af471",17,"yes","yellows",5,3,1,1791.90000003576
"5a28738fb4a5de00011af471",18,"yes","yellows",12,10,1,1252.5
"5a28738fb4a5de00011af471",19,"yes","blues",9,7,1,1602.89999997616
"5a28738fb4a5de00011af471",20,"yes","browns",6,8,1,1298.5
"5a28738fb4a5de00011af471",21,"yes","browns",11,9,1,1767
"5a28738fb4a5de00011af471",22,"yes","yellows",15,17,1,1347.5
"5a28738fb4a5de00011af471",23,"yes","browns",16,18,1,2338.39999997616
"5a28738fb4a5de00011af471",24,"yes","blues",11,13,1,1774.19999998808
"5a28738fb4a5de00011af471",25,"yes","reds",8,6,1,1876.59999996424
"5a28738fb4a5de00011af471",26,"yes","blues",18,16,0,1606.5
"5a28738fb4a5de00011af471",27,"yes","reds",18,16,0,3108.19999998808
"5a28738fb4a5de00011af471",28,"yes","browns",14,12,1,1657.89999997616
"5a28738fb4a5de00011af471",29,"yes","yellows",13,11,1,1296.19999998808
"5a28738fb4a5de00011af471",30,"yes","blues",8,6,1,1245.30000001192
"5a28738fb4a5de00011af471",31,"yes","reds",10,12,0,1110
"5a28738fb4a5de00011af471",32,"yes","reds",2,4,1,1382.29999995232
"5a28738fb4a5de00011af471",33,"yes","browns",3,1,1,1361.30000001192
"5a28738fb4a5de00011af471",34,"yes","yellows",20,18,1,1396
"5a28738fb4a5de00011af471",35,"yes","yellows",8,10,1,1370.19999998808
"5a28738fb4a5de00011af471",36,"yes","reds",9,11,0,1378.69999998808
"5a28738fb4a5de00011af471",37,"yes","reds",8,10,0,1143.90000003576
"5a28738fb4a5de00011af471",38,"yes","yellows",18,16,1,1562.90000003576
"5a28738fb4a5de00011af471",39,"yes","blues",7,9,1,1694.5
"5a28738fb4a5de00011af471",40,"yes","yellows",6,8,1,964.300000011921
"5a28738fb4a5de00011af471",41,"yes","yellows",12,10,1,1536.10000002384
"5a28738fb4a5de00011af471",42,"yes","reds",19,17,1,1565.30000001192
"5a28738fb4a5de00011af471",43,"yes","yellows",5,3,1,1495.70000004768
"5a28738fb4a5de00011af471",44,"yes","blues",3,5,1,1700.19999998808
"5a28738fb4a5de00011af471",45,"yes","blues",5,3,1,1119
"5a28738fb4a5de00011af471",46,"yes","reds",11,13,0,1122.69999998808
"5a28738fb4a5de00011af471",47,"yes","browns",10,8,0,1223.20000004768
"5a28738fb4a5de00011af471",48,"yes","yellows",14,12,1,925.300000011921
"5a28738fb4a5de00011af471",49,"yes","browns",6,4,1,1515.30000001192
"5a28738fb4a5de00011af471",50,"yes","blues",7,5,1,1050.39999997616
"5a28738fb4a5de00011af471",51,"yes","reds",18,20,0,1305.30000001192
"5a28738fb4a5de00011af471",52,"yes","blues",5,3,1,1105.29999995232
"5a28738fb4a5de00011af471",53,"yes","blues",9,7,1,835.599999964237
"5a28738fb4a5de00011af471",54,"yes","browns",15,13,1,1189.5
"5a28738fb4a5de00011af471",56,"yes","yellows",7,9,1,2632.5
"5a28738fb4a5de00011af471",57,"yes","yellows",18,20,1,1160.60000002384
"5a28738fb4a5de00011af471",58,"yes","yellows",7,9,1,3345.90000003576
"5a28738fb4a5de00011af471",59,"yes","reds",17,19,1,1278.5
"5a28738fb4a5de00011af471",60,"yes","blues",4,2,1,1031.30000001192
"5a28738fb4a5de00011af471",61,"yes","blues",2,4,1,1226.60000002384
"5a28738fb4a5de00011af471",62,"yes","reds",16,18,0,1210.60000002384
"5a28738fb4a5de00011af471",63,"yes","yellows",16,18,1,1535.20000004768
"5a28738fb4a5de00011af471",64,"yes","blues",3,5,1,832.199999988079
"5a28738fb4a5de00011af471",65,"yes","browns",13,15,1,1187.69999998808
"5a28738fb4a5de00011af471",66,"yes","browns",3,1,1,1173.90000003576
"5a28738fb4a5de00011af471",67,"yes","blues",3,1,1,1592.5
"5a28738fb4a5de00011af471",68,"yes","browns",16,14,1,685.899999976158
"5a28738fb4a5de00011af471",69,"yes","browns",19,17,1,1470.80000001192
"5a28738fb4a5de00011af471",70,"yes","blues",16,14,1,713.599999964237
"5a28738fb4a5de00011af471",71,"yes","browns",1,3,1,1690.59999996424
"5a28738fb4a5de00011af471",72,"yes","blues",13,11,1,1163.90000003576
"5a28738fb4a5de00011af471",73,"yes","reds",9,7,1,750.400000035763
"5a28738fb4a5de00011af471",74,"yes","blues",6,4,1,1057.5
"5a28738fb4a5de00011af471",75,"yes","browns",12,14,1,1868.19999998808
"5a28738fb4a5de00011af471",76,"yes","yellows",5,7,1,787.300000011921
"5a28738fb4a5de00011af471",77,"yes","browns",15,17,0,914.300000011921
"5a28738fb4a5de00011af471",78,"yes","yellows",6,4,1,1494.10000002384
"5a28738fb4a5de00011af471",79,"yes","reds",13,11,1,1006.09999996424
"5a28738fb4a5de00011af471",80,"yes","browns",9,11,1,1253
"5a28738fb4a5de00011af471",81,"yes","blues",18,20,1,1233.30000001192
"5a28738fb4a5de00011af471",82,"yes","yellows",9,7,1,1020.80000001192
"5a28738fb4a5de00011af471",83,"yes","yellows",10,8,0,844.699999988079
"5a28738fb4a5de00011af471",84,"yes","yellows",18,16,1,913
"5a28738fb4a5de00011af471",85,"yes","browns",10,12,1,1216.20000004768
"5a28738fb4a5de00011af471",86,"yes","blues",8,10,1,868.199999988079
"5a28738fb4a5de00011af471",87,"yes","reds",6,4,0,1103.19999998808
"5a28738fb4a5de00011af471",88,"yes","browns",18,20,1,1791.5
"5a28738fb4a5de00011af471",89,"yes","blues",16,18,1,2905.80000001192
"5a28738fb4a5de00011af471",90,"yes","browns",11,9,1,1265.70000004768
"5a28738fb4a5de00011af471",91,"yes","blues",16,18,1,1636
"5a28738fb4a5de00011af471",92,"yes","browns",6,8,1,1392.10000002384
"5a28738fb4a5de00011af471",93,"yes","browns",18,20,1,1556.09999996424
"5a28738fb4a5de00011af471",94,"yes","yellows",14,16,1,1899.30000001192
"5a28738fb4a5de00011af471",95,"yes","browns",17,19,1,915.300000011921
"5a28738fb4a5de00011af471",96,"yes","reds",11,9,1,806.100000023842
"5a28738fb4a5de00011af471",97,"yes","reds",15,17,0,737
"5a28738fb4a5de00011af471",98,"yes","yellows",9,7,1,2323
"5a28738fb4a5de00011af471",99,"yes","yellows",15,13,1,1186
"5a28738fb4a5de00011af471",100,"yes","reds",20,18,1,1510
"5a28738fb4a5de00011af471",101,"yes","yellows",10,12,1,908.800000011921
"5a28738fb4a5de00011af471",102,"yes","blues",15,17,0,752.800000011921
"5a28738fb4a5de00011af471",103,"yes","blues",18,16,1,688.700000047684
"5a28738fb4a5de00011af471",104,"yes","yellows",2,4,1,1321.19999998808
"5a28738fb4a5de00011af471",105,"yes","reds",14,12,1,1511.10000002384
"5a28738fb4a5de00011af471",107,"yes","yellows",16,14,1,2967.5
"5a28738fb4a5de00011af471",108,"yes","reds",20,18,0,1572.80000001192
"5a28738fb4a5de00011af471",109,"yes","reds",6,8,1,1047.29999995232
"5a28738fb4a5de00011af471",110,"yes","blues",14,12,1,3927.10000002384
"5a28738fb4a5de00011af471",111,"yes","yellows",11,9,1,955.899999976158
"5a28738fb4a5de00011af471",112,"yes","yellows",17,15,1,978.5
"5a28738fb4a5de00011af471",113,"yes","yellows",11,13,1,922.399999976158
"5a28738fb4a5de00011af471",114,"yes","blues",17,19,1,1227.40000003576
"5a28738fb4a5de00011af471",115,"yes","blues",6,4,1,1330.10000002384
"5a28738fb4a5de00011af471",116,"yes","browns",6,4,1,1145.30000001192
"5a28738fb4a5de00011af471",117,"yes","reds",5,7,1,1134.5
"5a28738fb4a5de00011af471",118,"yes","browns",7,5,1,1262.30000001192
"5a28738fb4a5de00011af471",119,"yes","blues",19,17,1,1609.80000001192
"5a28738fb4a5de00011af471",120,"yes","browns",5,7,1,1938.40000003576
"5a28738fb4a5de00011af471",121,"yes","reds",16,14,1,1795.39999997616
"5a28738fb4a5de00011af471",122,"yes","reds",5,7,1,1353.39999997616
"5a28738fb4a5de00011af471",123,"yes","yellows",12,14,1,882.599999964237
"5a28738fb4a5de00011af471",124,"yes","yellows",15,17,1,1004.5
"5a28738fb4a5de00011af471",125,"yes","yellows",13,15,0,1456.60000002384
"5a28738fb4a5de00011af471",126,"yes","blues",13,11,1,1084.30000001192
"5a28738fb4a5de00011af471",127,"yes","yellows",5,7,1,1304.5
"5a28738fb4a5de00011af471",128,"yes","blues",12,10,0,1132
"5a28738fb4a5de00011af471",129,"yes","reds",9,11,1,1464.39999997616
"5a28738fb4a5de00011af471",130,"yes","browns",8,10,1,1546.89999997616
"5a28738fb4a5de00011af471",131,"yes","reds",2,4,1,909.600000023842
"5a28738fb4a5de00011af471",132,"yes","browns",14,12,1,1181.69999998808
"5a28738fb4a5de00011af471",133,"yes","browns",9,7,0,1049.89999997616
"5a28738fb4a5de00011af471",134,"yes","blues",10,8,1,1477.5
"5a28738fb4a5de00011af471",135,"yes","browns",5,3,1,730.899999976158
"5a28738fb4a5de00011af471",136,"yes","browns",15,13,1,1003.59999996424
"5a28738fb4a5de00011af471",137,"yes","yellows",12,14,1,1022.69999998808
"5a28738fb4a5de00011af471",138,"yes","browns",4,6,1,933.5
"5a28738fb4a5de00011af471",139,"yes","yellows",3,1,1,848.800000011921
"5a28738fb4a5de00011af471",140,"yes","reds",14,16,1,1571
"5a28738fb4a5de00011af471",141,"yes","blues",11,9,1,1099.09999996424
"5a28738fb4a5de00011af471",142,"yes","browns",2,4,1,2045.69999998808
"5a28738fb4a5de00011af471",143,"yes","yellows",17,19,1,1963.69999998808
"5a28738fb4a5de00011af471",144,"yes","yellows",18,20,1,831.199999988079
"5a28738fb4a5de00011af471",145,"yes","reds",17,15,1,1764.19999998808
"5a28738fb4a5de00011af471",146,"yes","browns",18,16,1,812.5
"5a28738fb4a5de00011af471",147,"yes","yellows",8,6,1,1355.10000002384
"5a28738fb4a5de00011af471",148,"yes","browns",9,11,0,1180.10000002384
"5a28738fb4a5de00011af471",149,"yes","blues",17,15,0,1513.10000002384
"5a28738fb4a5de00011af471",150,"yes","yellows",16,18,1,1790.30000001192
"5a28738fb4a5de00011af471",151,"yes","blues",8,6,1,1464
"5a28738fb4a5de00011af471",152,"yes","reds",9,7,1,1092.5
"5a28738fb4a5de00011af471",153,"yes","blues",12,14,1,1259.10000002384
"5a28738fb4a5de00011af471",154,"yes","reds",7,5,1,775.399999976158
"5a28738fb4a5de00011af471",155,"yes","blues",7,9,1,887.600000023842
"5a28738fb4a5de00011af471",156,"yes","browns",7,9,1,1863
"5a28738fb4a5de00011af471",158,"yes","yellows",3,5,1,1104.80000001192
"5a28738fb4a5de00011af471",159,"yes","reds",10,8,1,1447.10000002384
"5a28738fb4a5de00011af471",160,"yes","yellows",14,16,1,1231.80000001192
"5a28738fb4a5de00011af471",161,"yes","browns",11,13,0,741.399999976158
"5a28738fb4a5de00011af471",162,"yes","yellows",4,6,1,1693.89999997616
"5a28738fb4a5de00011af471",163,"yes","reds",13,11,1,2026.5
"5a28738fb4a5de00011af471",164,"yes","reds",17,15,1,932
"5a28738fb4a5de00011af471",165,"yes","blues",10,12,1,748
"5a28738fb4a5de00011af471",166,"yes","blues",10,12,1,1633
"5a28738fb4a5de00011af471",167,"yes","blues",4,6,1,813
"5a28738fb4a5de00011af471",168,"yes","blues",1,3,1,644.400000035763
"5a28738fb4a5de00011af471",169,"yes","blues",13,15,0,975.400000035763
"5a28738fb4a5de00011af471",170,"yes","yellows",13,11,1,782.600000023842
"5a28738fb4a5de00011af471",171,"yes","yellows",4,2,0,1548.5
"5a28738fb4a5de00011af471",172,"yes","blues",15,17,1,3673.09999996424
"5a28738fb4a5de00011af471",173,"yes","blues",16,14,0,930
"5a28738fb4a5de00011af471",174,"yes","yellows",9,11,1,1277.89999997616
"5a28738fb4a5de00011af471",175,"yes","yellows",4,2,1,1196.60000002384
"5a28738fb4a5de00011af471",176,"yes","reds",18,16,0,2447.90000003576
"5a28738fb4a5de00011af471",177,"yes","blues",15,13,1,793.099999964237
"5a28738fb4a5de00011af471",178,"yes","browns",3,5,1,1308
"5a28738fb4a5de00011af471",179,"yes","browns",4,6,0,932.100000023842
"5a28738fb4a5de00011af471",180,"yes","yellows",2,4,1,924.399999976158
"5a28738fb4a5de00011af471",181,"yes","browns",13,11,1,1012.39999997616
"5a28738fb4a5de00011af471",182,"yes","reds",1,3,1,844.900000035763
"5a28738fb4a5de00011af471",183,"yes","browns",10,12,1,1960.30000001192
"5a28738fb4a5de00011af471",184,"yes","browns",14,16,1,1098.5
"5a28738fb4a5de00011af471",185,"yes","browns",12,14,1,1689.39999997616
"5a28738fb4a5de00011af471",186,"yes","yellows",17,15,1,2101.69999998808
"5a28738fb4a5de00011af471",187,"yes","browns",5,3,1,1362.89999997616
"5a28738fb4a5de00011af471",188,"yes","reds",13,15,0,4167
"5a28738fb4a5de00011af471",189,"yes","browns",17,15,1,1018.39999997616
"5a28738fb4a5de00011af471",190,"yes","yellows",1,3,1,1927.89999997616
"5a28738fb4a5de00011af471",191,"yes","browns",16,18,0,762.5
"5a28738fb4a5de00011af471",192,"yes","browns",4,2,1,2306.60000002384
"5a28738fb4a5de00011af471",193,"yes","reds",5,3,1,1090
"5a28738fb4a5de00011af471",194,"yes","reds",7,5,1,863.699999988079
"5a28738fb4a5de00011af471",195,"yes","blues",2,4,1,761.699999988079
"5a28738fb4a5de00011af471",196,"yes","browns",12,10,1,861.199999988079
"5a28738fb4a5de00011af471",197,"yes","reds",14,12,1,2836.19999998808
"5a28738fb4a5de00011af471",198,"yes","browns",15,17,1,1169
"5a28738fb4a5de00011af471",199,"yes","browns",8,6,0,813.800000011921
"5a28738fb4a5de00011af471",200,"yes","blues",8,10,1,1719.39999997616
"5a28738fb4a5de00011af471",201,"yes","yellows",11,9,0,872.100000023842
"5a28738fb4a5de00011af471",202,"yes","yellows",7,5,0,1191.5
"5a28738fb4a5de00011af471",203,"yes","reds",16,14,0,2421.59999996424
"5a28738fb4a5de00011af471",204,"yes","reds",14,16,0,593.199999988079
"5a28738fb4a5de00011af471",205,"yes","yellows",7,5,1,866.299999952316
"5a28738fb4a5de00011af471",206,"yes","yellows",19,17,1,1805.30000001192
"5a28738fb4a5de00011af471",207,"yes","blues",9,11,0,2490.69999998808
"5a28738fb4a5de00011af471",209,"yes","yellows",10,12,1,946.899999976158
"5a28738fb4a5de00011af471",210,"yes","blues",4,6,1,1720.80000001192
"5a28738fb4a5de00011af471",211,"yes","reds",15,13,1,1614.19999998808
"5a28738fb4a5de00011af471",212,"yes","blues",6,8,1,996.199999988079
"5a28738fb4a5de00011af471",213,"yes","reds",3,1,1,832.5
"5a28738fb4a5de00011af471",214,"yes","browns",13,15,1,823.199999988079
"5a28738fb4a5de00011af471",215,"yes","browns",9,7,1,1413.40000003576
"5a28738fb4a5de00011af471",216,"yes","reds",8,6,1,1461.19999998808
"5a28738fb4a5de00011af471",217,"yes","reds",16,18,0,810.800000011921
"5a28738fb4a5de00011af471",218,"yes","blues",4,2,1,586.800000011921
"5a28738fb4a5de00011af471",219,"yes","reds",15,17,0,1386.19999998808
"5a28738fb4a5de00011af471",220,"yes","browns",18,16,1,880.199999988079
"5a28738fb4a5de00011af471",221,"yes","yellows",16,14,1,2173
"5a28738fb4a5de00011af471",222,"yes","browns",10,8,1,853.699999988079
"5a28738fb4a5de00011af471",223,"yes","browns",20,18,1,710.100000023842
"5a28738fb4a5de00011af471",224,"yes","blues",5,7,1,835.100000023842
"5a28738fb4a5de00011af471",225,"yes","browns",11,13,1,830.400000035763
"5a28738fb4a5de00011af471",226,"yes","yellows",10,8,1,1243.59999996424
"5a28738fb4a5de00011af471",227,"yes","reds",1,3,1,792
"5a28738fb4a5de00011af471",228,"yes","reds",10,8,1,656.5
"5a28738fb4a5de00011af471",229,"yes","reds",4,2,0,668.100000023842
"5a28738fb4a5de00011af471",230,"yes","browns",2,4,1,726.599999964237
"5a28738fb4a5de00011af471",231,"yes","yellows",4,6,1,684.899999976158
"5a28738fb4a5de00011af471",232,"yes","reds",6,4,1,647.599999964237
"5a28738fb4a5de00011af471",233,"yes","reds",4,6,1,862.600000023842
"5a28738fb4a5de00011af471",234,"yes","reds",18,20,1,2007
"5a28738fb4a5de00011af471",235,"yes","blues",12,14,0,831.300000011921
"5a28738fb4a5de00011af471",236,"yes","yellows",17,19,1,1085.90000003576
"5a28738fb4a5de00011af471",237,"yes","blues",15,13,0,771.399999976158
"5a28738fb4a5de00011af471",238,"yes","reds",11,13,0,1094.10000002384
"5a28738fb4a5de00011af471",239,"yes","browns",4,2,1,1632.60000002384
"5a28738fb4a5de00011af471",240,"yes","reds",7,9,0,1353
"5a28738fb4a5de00011af471",241,"yes","reds",15,13,1,751.399999976158
"5a28738fb4a5de00011af471",242,"yes","reds",17,19,0,1467.80000001192
"5a28738fb4a5de00011af471",243,"yes","browns",8,10,1,871.5
"5a28738fb4a5de00011af471",244,"yes","browns",17,19,0,1294.69999998808
"5a28738fb4a5de00011af471",245,"yes","yellows",1,3,1,4136.30000001192
"5a28738fb4a5de00011af471",246,"yes","blues",9,11,1,1145.39999997616
"5a28738fb4a5de00011af471",247,"yes","reds",12,14,1,1264
"5a28738fb4a5de00011af471",248,"yes","blues",19,17,0,672.5
"5a28738fb4a5de00011af471",249,"yes","blues",3,1,1,1762.89999997616
"5a28738fb4a5de00011af471",250,"yes","browns",7,9,1,1453.59999996424
"5a28738fb4a5de00011af471",251,"yes","yellows",8,6,1,839.099999964237
"5a28738fb4a5de00011af471",252,"yes","browns",20,18,1,922.900000035763
"5a28738fb4a5de00011af471",253,"yes","browns",7,5,1,1201.5
"5a28738fb4a5de00011af471",254,"yes","reds",3,1,1,775.200000047684
"5a28738fb4a5de00011af471",255,"yes","blues",14,12,1,1030.79999995232
"5a28738fb4a5de00011af471",256,"yes","blues",6,8,1,758.899999976158
"5a28738fb4a5de00011af471",257,"yes","yellows",20,18,1,1093.20000004768
"5a28738fb4a5de00011af471",258,"yes","yellows",8,10,1,2016.70000004768
"5a28738fb4a5de00011af471",260,"yes","reds",10,12,1,1670.39999997616
"5a28738fb4a5de00011af471",261,"yes","blues",11,9,1,882.099999964237
"5a28738fb4a5de00011af471",262,"yes","yellows",19,17,1,730.400000035763
"5a28738fb4a5de00011af471",263,"yes","browns",5,7,1,791.600000023842
"5a28738fb4a5de00011af471",264,"yes","browns",19,17,1,673.800000011921
"5a28738fb4a5de00011af471",265,"yes","blues",17,19,1,1742.19999998808
"5a28738fb4a5de00011af471",266,"yes","reds",4,6,1,728.300000011921
"5a28738fb4a5de00011af471",267,"yes","reds",11,9,1,727.799999952316
"5a28738fb4a5de00011af471",268,"yes","browns",14,16,1,1010.5
"5a28738fb4a5de00011af471",269,"yes","browns",8,6,1,865.399999976158
"5a28738fb4a5de00011af471",270,"yes","browns",12,10,1,686.400000035763
"5a28738fb4a5de00011af471",271,"yes","blues",11,13,1,1240.09999996424
"5a28738fb4a5de00011af471",272,"yes","reds",19,17,1,947
"5a28738fb4a5de00011af471",273,"yes","browns",13,11,1,2168.90000003576
"5a28738fb4a5de00011af471",274,"yes","reds",12,14,0,1025.69999998808
"5a28738fb4a5de00011af471",275,"yes","reds",13,15,0,1211.80000001192
"5a28738fb4a5de00011af471",276,"yes","yellows",3,5,1,1486.39999997616
"5a28738fb4a5de00011af471",277,"yes","browns",17,15,1,1257.90000003576
"5a28738fb4a5de00011af471",278,"yes","blues",17,15,1,1403.60000002384
"5a28738fb4a5de00011af471",279,"yes","browns",3,5,1,836.100000023842
"5a28738fb4a5de00011af471",280,"yes","yellows",15,13,1,1048.5
"5a28738fb4a5de00011af471",281,"yes","reds",8,10,1,1057.89999997616
"5a28738fb4a5de00011af471",282,"yes","reds",3,5,0,1901.39999997616
"5a28738fb4a5de00011af471",283,"yes","reds",6,8,1,1800.29999995232
"5a28738fb4a5de00011af471",284,"yes","blues",20,18,0,931.199999988079
"5a28738fb4a5de00011af471",285,"yes","blues",5,7,1,1510.5
"5a28738fb4a5de00011af471",286,"yes","blues",12,10,1,1059
"5a28738fb4a5de00011af471",287,"yes","reds",4,2,1,2117.5
"5a28738fb4a5de00011af471",288,"yes","blues",18,20,1,1099
"5a28738fb4a5de00011af471",289,"yes","reds",12,10,1,1763.60000002384
"5a28738fb4a5de00011af471",290,"yes","blues",7,5,1,1141.30000001192
"5a28738fb4a5de00011af471",291,"yes","yellows",14,12,1,1679.69999998808
"5a28738fb4a5de00011af471",292,"yes","blues",14,16,1,1256.69999998808
"5a28738fb4a5de00011af471",293,"yes","browns",1,3,1,936.800000011921
"5a28738fb4a5de00011af471",294,"yes","blues",1,3,1,790.100000023842
"5a28738fb4a5de00011af471",295,"yes","blues",20,18,1,1566.40000003576
"5a28738fb4a5de00011af471",296,"yes","blues",13,15,1,830.399999976158
"5a28738fb4a5de00011af471",297,"yes","yellows",6,4,0,742.100000023842
"5a28738fb4a5de00011af471",298,"yes","reds",12,10,1,794.800000011921
"5ad1dd7eb438910001ac9997",6,"yes","browns",19,17,1,1615.69999999553
"5ad1dd7eb438910001ac9997",7,"yes","browns",17,19,0,1253.5
"5ad1dd7eb438910001ac9997",8,"yes","blues",6,4,1,1926.90000000596
"5ad1dd7eb438910001ac9997",9,"yes","blues",15,13,1,1822.80000000447
"5ad1dd7eb438910001ac9997",10,"yes","reds",1,3,0,1743.89999999851
"5ad1dd7eb438910001ac9997",11,"yes","yellows",13,15,0,1499.70000000298
"5ad1dd7eb438910001ac9997",12,"yes","reds",5,3,1,1292.80000000447
"5ad1dd7eb438910001ac9997",13,"yes","browns",5,3,1,1084.69999999553
"5ad1dd7eb438910001ac9997",14,"yes","browns",3,5,0,1790.69999999553
"5ad1dd7eb438910001ac9997",15,"yes","browns",11,13,0,740.89999999851
"5ad1dd7eb438910001ac9997",16,"yes","blues",14,12,1,853
"5ad1dd7eb438910001ac9997",17,"yes","reds",18,20,1,1669.89999999851
"5ad1dd7eb438910001ac9997",18,"yes","reds",6,4,1,1183.70000000298
"5ad1dd7eb438910001ac9997",19,"yes","yellows",17,15,1,956.30000000447
"5ad1dd7eb438910001ac9997",20,"yes","reds",8,10,0,1309.10000000149
"5ad1dd7eb438910001ac9997",21,"yes","reds",18,16,1,2159.70000000298
"5ad1dd7eb438910001ac9997",22,"yes","blues",8,6,1,1295.39999999851
"5ad1dd7eb438910001ac9997",23,"yes","browns",7,5,1,1055.70000000298
"5ad1dd7eb438910001ac9997",24,"yes","reds",10,8,1,1079.70000000298
"5ad1dd7eb438910001ac9997",25,"yes","blues",18,20,1,1271
"5ad1dd7eb438910001ac9997",26,"yes","yellows",9,7,0,1168.39999999851
"5ad1dd7eb438910001ac9997",27,"yes","reds",18,20,0,1778.60000000149
"5ad1dd7eb438910001ac9997",28,"yes","blues",19,17,1,900.10000000149
"5ad1dd7eb438910001ac9997",29,"yes","reds",4,6,0,838.60000000149
"5ad1dd7eb438910001ac9997",30,"yes","browns",4,2,1,893.30000000447
"5ad1dd7eb438910001ac9997",31,"yes","browns",15,17,0,935.19999999553
"5ad1dd7eb438910001ac9997",32,"yes","reds",8,10,0,1184.10000000149
"5ad1dd7eb438910001ac9997",33,"yes","yellows",10,8,0,1456
"5ad1dd7eb438910001ac9997",34,"yes","blues",11,13,1,1550.39999999851
"5ad1dd7eb438910001ac9997",35,"yes","reds",4,2,1,1436.89999999851
"5ad1dd7eb438910001ac9997",36,"yes","yellows",20,18,1,901.29999999702
"5ad1dd7eb438910001ac9997",37,"yes","browns",10,8,1,861.10000000149
"5ad1dd7eb438910001ac9997",38,"yes","reds",10,12,0,1214.90000000596
"5ad1dd7eb438910001ac9997",39,"yes","browns",16,14,1,750.29999999702
"5ad1dd7eb438910001ac9997",40,"yes","yellows",8,10,0,1463.89999999851
"5ad1dd7eb438910001ac9997",41,"yes","reds",3,5,0,1296.69999999553
"5ad1dd7eb438910001ac9997",42,"yes","yellows",3,1,1,1645.29999999702
"5ad1dd7eb438910001ac9997",43,"yes","reds",16,18,1,1486.20000000298
"5ad1dd7eb438910001ac9997",44,"yes","yellows",6,4,1,1614
"5ad1dd7eb438910001ac9997",45,"yes","browns",15,13,1,862.59999999404
"5ad1dd7eb438910001ac9997",46,"yes","browns",8,6,1,733
"5ad1dd7eb438910001ac9997",47,"yes","reds",19,17,1,1375.39999999851
"5ad1dd7eb438910001ac9997",48,"yes","blues",9,11,0,1091.70000000298
"5ad1dd7eb438910001ac9997",49,"yes","blues",3,1,1,763.39999999851
"5ad1dd7eb438910001ac9997",50,"yes","reds",6,8,0,1407.59999999404
"5ad1dd7eb438910001ac9997",51,"yes","browns",13,15,0,1933.70000000298
"5ad1dd7eb438910001ac9997",52,"yes","yellows",1,3,1,1661.29999999702
"5ad1dd7eb438910001ac9997",53,"yes","browns",9,11,0,1573.5
"5ad1dd7eb438910001ac9997",54,"yes","browns",19,17,1,719.80000000447
"5ad1dd7eb438910001ac9997",56,"yes","reds",14,16,1,1685.19999999553
"5ad1dd7eb438910001ac9997",57,"yes","yellows",16,18,0,1275.29999999702
"5ad1dd7eb438910001ac9997",58,"yes","reds",14,16,0,1214.39999999851
"5ad1dd7eb438910001ac9997",59,"yes","yellows",8,10,0,1095.70000000298
"5ad1dd7eb438910001ac9997",60,"yes","browns",2,4,0,878.60000000149
"5ad1dd7eb438910001ac9997",61,"yes","yellows",10,12,0,1035.90000000596
"5ad1dd7eb438910001ac9997",62,"yes","blues",16,18,0,1492.20000000298
"5ad1dd7eb438910001ac9997",63,"yes","yellows",14,16,0,799.39999999851
"5ad1dd7eb438910001ac9997",64,"yes","blues",6,4,1,623.89999999851
"5ad1dd7eb438910001ac9997",65,"yes","reds",15,17,0,1008.19999999553
"5ad1dd7eb438910001ac9997",66,"yes","reds",20,18,0,2037.5
"5ad1dd7eb438910001ac9997",67,"yes","browns",7,5,1,640.10000000149
"5ad1dd7eb438910001ac9997",68,"yes","browns",14,12,1,712.89999999851
"5ad1dd7eb438910001ac9997",69,"yes","blues",10,12,0,806.89999999851
"5ad1dd7eb438910001ac9997",70,"yes","reds",15,13,1,886.89999999851
"5ad1dd7eb438910001ac9997",71,"yes","yellows",10,12,0,2767
"5ad1dd7eb438910001ac9997",72,"yes","browns",18,16,1,692.40000000596
"5ad1dd7eb438910001ac9997",73,"yes","yellows",17,15,1,757.5
"5ad1dd7eb438910001ac9997",74,"yes","yellows",18,16,1,874.5
"5ad1dd7eb438910001ac9997",75,"yes","yellows",11,13,0,1382
"5ad1dd7eb438910001ac9997",76,"yes","yellows",9,7,1,958.5
"5ad1dd7eb438910001ac9997",77,"yes","blues",5,3,1,627.39999999851
"5ad1dd7eb438910001ac9997",78,"yes","blues",14,16,0,1324.19999999553
"5ad1dd7eb438910001ac9997",79,"yes","yellows",3,5,1,1415.20000000298
"5ad1dd7eb438910001ac9997",80,"yes","yellows",4,2,1,1221.89999999851
"5ad1dd7eb438910001ac9997",81,"yes","blues",16,14,1,768.09999999404
"5ad1dd7eb438910001ac9997",82,"yes","browns",10,12,0,652.60000000149
"5ad1dd7eb438910001ac9997",83,"yes","yellows",19,17,1,743.10000000149
"5ad1dd7eb438910001ac9997",84,"yes","blues",12,10,1,784
"5ad1dd7eb438910001ac9997",85,"yes","reds",18,16,1,1014.39999999851
"5ad1dd7eb438910001ac9997",86,"yes","browns",20,18,1,719
"5ad1dd7eb438910001ac9997",87,"yes","browns",17,15,1,687.39999999851
"5ad1dd7eb438910001ac9997",88,"yes","blues",17,19,0,646.39999999851
"5ad1dd7eb438910001ac9997",89,"yes","yellows",5,7,1,864.29999999702
"5ad1dd7eb438910001ac9997",90,"yes","reds",9,7,1,1146.69999999553
"5ad1dd7eb438910001ac9997",91,"yes","reds",13,11,1,855
"5ad1dd7eb438910001ac9997",92,"yes","reds",3,1,1,714.30000000447
"5ad1dd7eb438910001ac9997",93,"yes","browns",13,15,1,781.29999999702
"5ad1dd7eb438910001ac9997",94,"yes","yellows",3,5,0,2623.10000000149
"5ad1dd7eb438910001ac9997",95,"yes","browns",13,11,1,956.69999999553
"5ad1dd7eb438910001ac9997",96,"yes","reds",12,14,1,925.29999999702
"5ad1dd7eb438910001ac9997",97,"yes","yellows",14,12,1,766
"5ad1dd7eb438910001ac9997",98,"yes","reds",17,15,1,1071.10000000149
"5ad1dd7eb438910001ac9997",99,"yes","browns",7,9,1,2158.39999999851
"5ad1dd7eb438910001ac9997",100,"yes","blues",8,6,1,1636.10000000149
"5ad1dd7eb438910001ac9997",101,"yes","browns",4,6,1,1102.89999999851
"5ad1dd7eb438910001ac9997",102,"yes","reds",11,13,0,1856
"5ad1dd7eb438910001ac9997",103,"yes","yellows",4,6,1,1213.5
"5ad1dd7eb438910001ac9997",104,"yes","browns",6,4,1,962.60000000149
"5ad1dd7eb438910001ac9997",105,"yes","browns",17,15,1,815.69999999553
"5ad1dd7eb438910001ac9997",107,"yes","browns",3,5,0,617.09999999404
"5ad1dd7eb438910001ac9997",108,"yes","blues",5,3,1,1652.30000000447
"5ad1dd7eb438910001ac9997",109,"yes","blues",10,8,1,892.10000000149
"5ad1dd7eb438910001ac9997",110,"yes","yellows",14,12,1,925.70000000298
"5ad1dd7eb438910001ac9997",111,"yes","browns",3,1,0,19.3000000044703
"5ad1dd7eb438910001ac9997",112,"yes","yellows",12,10,1,1456.89999999851
"5ad1dd7eb438910001ac9997",113,"yes","browns",14,16,0,794.89999999851
"5ad1dd7eb438910001ac9997",114,"yes","browns",8,10,0,775.70000000298
"5ad1dd7eb438910001ac9997",115,"yes","reds",7,5,1,804.60000000149
"5ad1dd7eb438910001ac9997",116,"yes","yellows",7,9,0,1093
"5ad1dd7eb438910001ac9997",117,"yes","blues",3,5,1,1179.39999999851
"5ad1dd7eb438910001ac9997",118,"yes","browns",18,20,0,859
"5ad1dd7eb438910001ac9997",119,"yes","browns",18,20,0,875.5
"5ad1dd7eb438910001ac9997",120,"yes","browns",4,2,1,3372.60000000149
"5ad1dd7eb438910001ac9997",121,"yes","yellows",13,11,0,2743.70000000298
"5ad1dd7eb438910001ac9997",122,"yes","reds",20,18,0,2397.39999999851
"5ad1dd7eb438910001ac9997",123,"yes","blues",11,13,1,1166.89999999851
"5ad1dd7eb438910001ac9997",124,"yes","blues",4,2,1,815.69999999553
"5ad1dd7eb438910001ac9997",125,"yes","yellows",8,6,0,1844.89999999851
"5ad1dd7eb438910001ac9997",126,"yes","blues",7,5,1,1429.79999999702
"5ad1dd7eb438910001ac9997",127,"yes","reds",9,7,1,1123.89999999851
"5ad1dd7eb438910001ac9997",128,"yes","yellows",9,11,1,1846.10000000149
"5ad1dd7eb438910001ac9997",129,"yes","yellows",12,14,0,1624.10000000149
"5ad1dd7eb438910001ac9997",130,"yes","yellows",17,19,0,1645.20000000298
"5ad1dd7eb438910001ac9997",131,"yes","browns",17,19,0,732
"5ad1dd7eb438910001ac9997",132,"yes","blues",2,4,0,1178.79999999702
"5ad1dd7eb438910001ac9997",133,"yes","yellows",18,20,0,2199.59999999404
"5ad1dd7eb438910001ac9997",134,"yes","blues",20,18,0,1062.89999999851
"5ad1dd7eb438910001ac9997",135,"yes","reds",6,8,1,1727.40000000596
"5ad1dd7eb438910001ac9997",136,"yes","yellows",16,18,1,2022.29999999702
"5ad1dd7eb438910001ac9997",137,"yes","reds",13,15,0,2253.5
"5ad1dd7eb438910001ac9997",138,"yes","blues",11,9,1,816.5
"5ad1dd7eb438910001ac9997",139,"yes","yellows",9,11,0,958.10000000149
"5ad1dd7eb438910001ac9997",140,"yes","blues",16,18,1,2251.80000000447
"5ad1dd7eb438910001ac9997",141,"yes","browns",1,3,1,1724.90000000596
"5ad1dd7eb438910001ac9997",142,"yes","yellows",1,3,1,1226.39999999851
"5ad1dd7eb438910001ac9997",143,"yes","blues",10,12,1,1614.19999999553
"5ad1dd7eb438910001ac9997",144,"yes","reds",16,14,1,1293.39999999851
"5ad1dd7eb438910001ac9997",145,"yes","yellows",2,4,1,2141.60000000149
"5ad1dd7eb438910001ac9997",146,"yes","browns",4,6,0,846.89999999851
"5ad1dd7eb438910001ac9997",147,"yes","reds",4,6,1,1239.10000000149
"5ad1dd7eb438910001ac9997",148,"yes","blues",6,8,1,1972.79999999702
"5ad1dd7eb438910001ac9997",149,"yes","yellows",10,8,1,797.70000000298
"5ad1dd7eb438910001ac9997",150,"yes","reds",8,6,1,926.79999999702
"5ad1dd7eb438910001ac9997",151,"yes","yellows",2,4,1,1035.79999999702
"5ad1dd7eb438910001ac9997",152,"yes","blues",17,15,1,739.69999999553
"5ad1dd7eb438910001ac9997",153,"yes","browns",16,18,0,924.39999999851
"5ad1dd7eb438910001ac9997",154,"yes","blues",20,18,1,771
"5ad1dd7eb438910001ac9997",155,"yes","yellows",6,8,0,1742.89999999851
"5ad1dd7eb438910001ac9997",156,"yes","yellows",18,16,1,698.20000000298
"5ad1dd7eb438910001ac9997",158,"yes","browns",12,14,0,712
"5ad1dd7eb438910001ac9997",159,"yes","reds",15,17,0,887
"5ad1dd7eb438910001ac9997",160,"yes","blues",12,14,1,1133.40000000596
"5ad1dd7eb438910001ac9997",161,"yes","blues",7,9,1,1603
"5ad1dd7eb438910001ac9997",162,"yes","browns",13,11,1,890.40000000596
"5ad1dd7eb438910001ac9997",163,"yes","yellows",16,14,1,1043.69999999553
"5ad1dd7eb438910001ac9997",164,"yes","yellows",5,3,1,2367
"5ad1dd7eb438910001ac9997",165,"yes","browns",11,9,1,1956.30000000447
"5ad1dd7eb438910001ac9997",166,"yes","reds",12,14,0,892.60000000149
"5ad1dd7eb438910001ac9997",167,"yes","browns",16,14,1,708.80000000447
"5ad1dd7eb438910001ac9997",168,"yes","yellows",12,14,1,1915.80000000447
"5ad1dd7eb438910001ac9997",169,"yes","blues",13,15,1,1854.10000000149
"5ad1dd7eb438910001ac9997",170,"yes","browns",9,7,1,811.5
"5ad1dd7eb438910001ac9997",171,"yes","browns",14,16,0,1310.79999999702
"5ad1dd7eb438910001ac9997",172,"yes","yellows",5,3,1,1558.89999999851
"5ad1dd7eb438910001ac9997",173,"yes","reds",11,9,1,790.69999999553
"5ad1dd7eb438910001ac9997",174,"yes","browns",15,13,1,1187
"5ad1dd7eb438910001ac9997",175,"yes","yellows",15,13,1,970.10000000149
"5ad1dd7eb438910001ac9997",176,"yes","blues",19,17,1,850.10000000149
"5ad1dd7eb438910001ac9997",177,"yes","browns",11,13,1,2108.5
"5ad1dd7eb438910001ac9997",178,"yes","blues",18,16,1,731.59999999404
"5ad1dd7eb438910001ac9997",179,"yes","browns",20,18,1,713.70000000298
"5ad1dd7eb438910001ac9997",180,"yes","blues",4,6,1,1838.60000000149
"5ad1dd7eb438910001ac9997",181,"yes","blues",5,7,1,4430.89999999851
"5ad1dd7eb438910001ac9997",182,"yes","browns",1,3,1,898.10000000149
"5ad1dd7eb438910001ac9997",183,"yes","yellows",15,13,1,795.10000000149
"5ad1dd7eb438910001ac9997",184,"yes","browns",5,7,1,1117.5
"5ad1dd7eb438910001ac9997",185,"yes","blues",15,13,1,978.80000000447
"5ad1dd7eb438910001ac9997",186,"yes","blues",1,3,1,709.70000000298
"5ad1dd7eb438910001ac9997",187,"yes","blues",8,10,1,1123.79999999702
"5ad1dd7eb438910001ac9997",188,"yes","yellows",11,9,1,1548.90000000596
"5ad1dd7eb438910001ac9997",189,"yes","yellows",4,6,1,2950.80000000447
"5ad1dd7eb438910001ac9997",190,"yes","blues",12,14,1,2331.89999999851
"5ad1dd7eb438910001ac9997",191,"yes","browns",9,7,0,1388.60000000149
"5ad1dd7eb438910001ac9997",192,"yes","reds",10,12,1,1763.39999999851
"5ad1dd7eb438910001ac9997",193,"yes","reds",12,10,1,1054.20000000298
"5ad1dd7eb438910001ac9997",194,"yes","reds",2,4,1,1109.5
"5ad1dd7eb438910001ac9997",195,"yes","browns",12,10,1,730.20000000298
"5ad1dd7eb438910001ac9997",196,"yes","reds",13,11,1,1071.69999999553
"5ad1dd7eb438910001ac9997",197,"yes","reds",2,4,1,1236
"5ad1dd7eb438910001ac9997",198,"yes","browns",12,14,1,1345.79999999702
"5ad1dd7eb438910001ac9997",199,"yes","reds",11,9,1,1254.40000000596
"5ad1dd7eb438910001ac9997",200,"yes","yellows",7,9,0,1537.70000000298
"5ad1dd7eb438910001ac9997",201,"yes","browns",10,12,0,885
"5ad1dd7eb438910001ac9997",202,"yes","blues",2,4,0,782.39999999851
"5ad1dd7eb438910001ac9997",203,"yes","browns",7,9,1,1894.60000000149
"5ad1dd7eb438910001ac9997",204,"yes","reds",10,8,1,1147.5
"5ad1dd7eb438910001ac9997",205,"yes","blues",7,5,1,1046.40000000596
"5ad1dd7eb438910001ac9997",206,"yes","blues",6,8,1,1298.79999999702
"5ad1dd7eb438910001ac9997",207,"yes","browns",10,8,1,677.5
"5ad1dd7eb438910001ac9997",209,"yes","blues",9,7,1,623.90000000596
"5ad1dd7eb438910001ac9997",210,"yes","yellows",12,10,1,803.20000000298
"5ad1dd7eb438910001ac9997",211,"yes","blues",14,16,1,3005
"5ad1dd7eb438910001ac9997",212,"yes","yellows",6,8,0,715.19999999553
"5ad1dd7eb438910001ac9997",213,"yes","browns",12,10,1,884.39999999851
"5ad1dd7eb438910001ac9997",214,"yes","blues",14,12,1,846.30000000447
"5ad1dd7eb438910001ac9997",215,"yes","reds",3,1,1,999.20000000298
"5ad1dd7eb438910001ac9997",216,"yes","yellows",4,2,1,668.39999999851
"5ad1dd7eb438910001ac9997",217,"yes","yellows",11,9,1,746.70000000298
"5ad1dd7eb438910001ac9997",218,"yes","blues",15,17,1,1627.20000000298
"5ad1dd7eb438910001ac9997",219,"yes","blues",8,10,1,1582
"5ad1dd7eb438910001ac9997",220,"yes","blues",16,14,1,1141
"5ad1dd7eb438910001ac9997",221,"yes","browns",14,12,1,1237.60000000149
"5ad1dd7eb438910001ac9997",222,"yes","yellows",15,17,0,1009.5
"5ad1dd7eb438910001ac9997",223,"yes","yellows",13,11,1,1017.69999999553
"5ad1dd7eb438910001ac9997",224,"yes","yellows",18,20,0,2126.79999999702
"5ad1dd7eb438910001ac9997",225,"yes","browns",15,17,1,2014.39999999851
"5ad1dd7eb438910001ac9997",226,"yes","blues",18,16,1,1057.29999999702
"5ad1dd7eb438910001ac9997",227,"yes","reds",1,3,0,1515.5
"5ad1dd7eb438910001ac9997",228,"yes","blues",18,20,1,2969.79999999702
"5ad1dd7eb438910001ac9997",229,"yes","yellows",11,13,0,2348.60000000149
"5ad1dd7eb438910001ac9997",230,"yes","reds",16,14,1,2522.29999999702
"5ad1dd7eb438910001ac9997",231,"yes","reds",9,11,1,1773.20000000298
"5ad1dd7eb438910001ac9997",232,"yes","browns",8,6,1,844.10000000149
"5ad1dd7eb438910001ac9997",233,"yes","browns",9,11,0,758.60000000149
"5ad1dd7eb438910001ac9997",234,"yes","yellows",7,5,1,1198.79999999702
"5ad1dd7eb438910001ac9997",235,"yes","reds",13,15,0,1563.19999999553
"5ad1dd7eb438910001ac9997",236,"yes","reds",12,10,1,2163.79999999702
"5ad1dd7eb438910001ac9997",237,"yes","reds",5,7,0,2406
"5ad1dd7eb438910001ac9997",238,"yes","browns",6,8,1,1349.79999999702
"5ad1dd7eb438910001ac9997",239,"yes","reds",3,5,1,1467
"5ad1dd7eb438910001ac9997",240,"yes","blues",13,11,0,1447.19999999553
"5ad1dd7eb438910001ac9997",241,"yes","browns",16,18,0,1394.39999999851
"5ad1dd7eb438910001ac9997",242,"yes","reds",17,15,1,1531.69999999553
"5ad1dd7eb438910001ac9997",243,"yes","blues",12,10,1,1876.89999999851
"5ad1dd7eb438910001ac9997",244,"yes","blues",11,9,1,884.39999999851
"5ad1dd7eb438910001ac9997",245,"yes","blues",10,8,1,1172.60000000149
"5ad1dd7eb438910001ac9997",246,"yes","reds",15,13,1,1272.89999999851
"5ad1dd7eb438910001ac9997",247,"yes","blues",4,6,0,1147.10000000149
"5ad1dd7eb438910001ac9997",248,"yes","reds",17,19,1,1357.79999999702
"5ad1dd7eb438910001ac9997",249,"yes","reds",17,19,0,1409
"5ad1dd7eb438910001ac9997",250,"yes","blues",13,15,0,1093.29999999702
"5ad1dd7eb438910001ac9997",251,"yes","reds",6,4,1,843.89999999851
"5ad1dd7eb438910001ac9997",252,"yes","blues",7,9,1,1363.90000000596
"5ad1dd7eb438910001ac9997",253,"yes","browns",11,9,1,754.29999999702
"5ad1dd7eb438910001ac9997",254,"yes","reds",8,6,1,776.30000000447
"5ad1dd7eb438910001ac9997",255,"yes","reds",19,17,0,830.29999999702
"5ad1dd7eb438910001ac9997",256,"yes","reds",9,11,1,2626.60000000149
"5ad1dd7eb438910001ac9997",257,"yes","blues",17,19,0,1970.90000000596
"5ad1dd7eb438910001ac9997",258,"yes","blues",17,15,1,772
"5ad1dd7eb438910001ac9997",260,"yes","blues",5,7,1,1110.79999999702
"5ad1dd7eb438910001ac9997",261,"yes","blues",3,1,1,720.29999999702
"5ad1dd7eb438910001ac9997",262,"yes","browns",8,10,1,2841.79999999702
"5ad1dd7eb438910001ac9997",263,"yes","yellows",8,6,1,941.5
"5ad1dd7eb438910001ac9997",264,"yes","yellows",16,14,1,794.40000000596
"5ad1dd7eb438910001ac9997",265,"yes","browns",18,16,1,813.79999999702
"5ad1dd7eb438910001ac9997",266,"yes","blues",13,11,1,924.19999999553
"5ad1dd7eb438910001ac9997",267,"yes","yellows",14,16,1,1482.5
"5ad1dd7eb438910001ac9997",268,"yes","blues",9,7,1,1075.89999999851
"5ad1dd7eb438910001ac9997",269,"yes","reds",7,5,1,751
"5ad1dd7eb438910001ac9997",270,"yes","reds",14,12,1,1834.39999999851
"5ad1dd7eb438910001ac9997",271,"yes","blues",3,5,0,1154.39999999851
"5ad1dd7eb438910001ac9997",272,"yes","browns",6,4,1,1298.79999999702
"5ad1dd7eb438910001ac9997",273,"yes","reds",5,3,1,1459.39999999851
"5ad1dd7eb438910001ac9997",274,"yes","yellows",3,1,1,1460.60000000149
"5ad1dd7eb438910001ac9997",275,"yes","yellows",17,19,1,1997.90000000596
"5ad1dd7eb438910001ac9997",276,"yes","yellows",5,7,1,2337.89999999851
"5ad1dd7eb438910001ac9997",277,"yes","browns",5,3,1,1035.5
"5ad1dd7eb438910001ac9997",278,"yes","yellows",20,18,1,1323.69999999553
"5ad1dd7eb438910001ac9997",279,"yes","reds",5,7,0,1050.80000000447
"5ad1dd7eb438910001ac9997",280,"yes","yellows",15,17,1,2596.29999999702
"5ad1dd7eb438910001ac9997",281,"yes","browns",3,1,1,714
"5ad1dd7eb438910001ac9997",282,"yes","browns",2,4,1,1206.5
"5ad1dd7eb438910001ac9997",283,"yes","yellows",13,15,1,1049.79999999702
"5ad1dd7eb438910001ac9997",284,"yes","browns",6,8,1,1601.89999999851
"5ad1dd7eb438910001ac9997",285,"yes","reds",7,9,0,784.69999999553
"5ad1dd7eb438910001ac9997",286,"yes","reds",16,18,1,1892.10000000149
"5ad1dd7eb438910001ac9997",287,"yes","yellows",6,4,1,1016.10000000149
"5ad1dd7eb438910001ac9997",288,"yes","reds",11,13,0,1543.39999999851
"5ad1dd7eb438910001ac9997",289,"yes","yellows",19,17,1,1589.60000000149
"5ad1dd7eb438910001ac9997",290,"yes","blues",15,17,1,2980.29999999702
"5ad1dd7eb438910001ac9997",291,"yes","blues",9,11,0,955.89999999851
"5ad1dd7eb438910001ac9997",292,"yes","yellows",7,5,1,933.60000000149
"5ad1dd7eb438910001ac9997",293,"yes","blues",4,2,1,777
"5ad1dd7eb438910001ac9997",294,"yes","reds",7,9,0,1745
"5ad1dd7eb438910001ac9997",295,"yes","reds",4,2,1,637
"5ad1dd7eb438910001ac9997",296,"yes","reds",14,12,1,2369.29999999702
"5ad1dd7eb438910001ac9997",297,"yes","blues",1,3,1,1594.79999999702
"5ad1dd7eb438910001ac9997",298,"yes","browns",5,7,1,1044.29999999702
"5aed0b3aaa05510001ff7d44",6,"no","browns",19,17,1,709
"5aed0b3aaa05510001ff7d44",7,"no","yellows",13,11,1,583
"5aed0b3aaa05510001ff7d44",8,"no","blues",9,7,1,736
"5aed0b3aaa05510001ff7d44",9,"no","blues",11,13,1,847
"5aed0b3aaa05510001ff7d44",10,"no","blues",6,8,0,933
"5aed0b3aaa05510001ff7d44",11,"no","reds",20,18,1,865
"5aed0b3aaa05510001ff7d44",12,"no","browns",11,13,0,876
"5aed0b3aaa05510001ff7d44",13,"no","yellows",13,15,1,589
"5aed0b3aaa05510001ff7d44",14,"no","browns",14,12,1,2842
"5aed0b3aaa05510001ff7d44",15,"no","browns",20,18,1,1235
"5aed0b3aaa05510001ff7d44",16,"no","yellows",17,19,0,1836
"5aed0b3aaa05510001ff7d44",17,"no","blues",9,11,0,1285
"5aed0b3aaa05510001ff7d44",18,"no","browns",13,15,0,1151
"5aed0b3aaa05510001ff7d44",19,"no","yellows",5,7,0,1331
"5aed0b3aaa05510001ff7d44",20,"no","browns",8,10,0,1140
"5aed0b3aaa05510001ff7d44",21,"no","blues",8,10,0,1487
"5aed0b3aaa05510001ff7d44",22,"no","browns",12,10,1,2039
"5aed0b3aaa05510001ff7d44",23,"no","yellows",3,5,1,2361
"5aed0b3aaa05510001ff7d44",24,"no","yellows",17,19,0,1625
"5aed0b3aaa05510001ff7d44",25,"no","blues",5,3,1,1803
"5aed0b3aaa05510001ff7d44",26,"no","reds",8,6,1,1856
"5aed0b3aaa05510001ff7d44",27,"no","browns",18,20,0,1650
"5aed0b3aaa05510001ff7d44",28,"no","yellows",14,12,1,1277
"5aed0b3aaa05510001ff7d44",29,"no","reds",4,2,1,2055
"5aed0b3aaa05510001ff7d44",30,"no","blues",2,4,1,1605
"5aed0b3aaa05510001ff7d44",31,"no","blues",16,18,0,2279
"5aed0b3aaa05510001ff7d44",32,"no","yellows",4,6,0,2245
"5aed0b3aaa05510001ff7d44",33,"no","reds",8,6,1,1027
"5aed0b3aaa05510001ff7d44",34,"no","yellows",6,8,0,3137
"5aed0b3aaa05510001ff7d44",35,"no","yellows",14,16,0,2339
"5aed0b3aaa05510001ff7d44",36,"no","yellows",16,14,1,2699
"5aed0b3aaa05510001ff7d44",37,"no","browns",2,4,0,1530
"5aed0b3aaa05510001ff7d44",38,"no","yellows",11,13,0,1242
"5aed0b3aaa05510001ff7d44",39,"no","browns",8,6,1,1417
"5aed0b3aaa05510001ff7d44",40,"no","blues",5,7,1,1583
"5aed0b3aaa05510001ff7d44",41,"no","browns",18,20,0,1299
"5aed0b3aaa05510001ff7d44",42,"no","blues",20,18,0,2511
"5aed0b3aaa05510001ff7d44",43,"no","reds",6,8,0,1549
"5aed0b3aaa05510001ff7d44",44,"no","reds",2,4,1,2908
"5aed0b3aaa05510001ff7d44",45,"no","blues",4,2,1,1080
"5aed0b3aaa05510001ff7d44",46,"no","yellows",6,4,1,1121
"5aed0b3aaa05510001ff7d44",47,"no","browns",5,7,0,794
"5aed0b3aaa05510001ff7d44",48,"no","reds",16,18,0,2868
"5aed0b3aaa05510001ff7d44",49,"no","blues",15,17,0,2318
"5aed0b3aaa05510001ff7d44",50,"no","reds",18,16,1,2940
"5aed0b3aaa05510001ff7d44",51,"no","browns",11,13,0,1635
"5aed0b3aaa05510001ff7d44",52,"no","blues",13,15,0,2495
"5aed0b3aaa05510001ff7d44",53,"no","browns",9,7,1,960
"5aed0b3aaa05510001ff7d44",54,"no","yellows",2,4,1,1645
"5aed0b3aaa05510001ff7d44",56,"no","browns",9,11,0,2140
"5aed0b3aaa05510001ff7d44",57,"no","browns",8,6,1,949
"5aed0b3aaa05510001ff7d44",58,"no","yellows",9,7,1,2487
"5aed0b3aaa05510001ff7d44",59,"no","reds",17,15,1,2200
"5aed0b3aaa05510001ff7d44",60,"no","browns",14,16,0,1581
"5aed0b3aaa05510001ff7d44",61,"no","blues",19,17,1,1429
"5aed0b3aaa05510001ff7d44",62,"no","blues",4,6,1,1163
"5aed0b3aaa05510001ff7d44",63,"no","browns",8,10,0,1137
"5aed0b3aaa05510001ff7d44",64,"no","yellows",7,9,0,1951
"5aed0b3aaa05510001ff7d44",65,"no","yellows",20,18,1,904
"5aed0b3aaa05510001ff7d44",66,"no","blues",3,5,0,1780
"5aed0b3aaa05510001ff7d44",67,"no","yellows",15,13,1,1103
"5aed0b3aaa05510001ff7d44",68,"no","blues",10,12,0,1685
"5aed0b3aaa05510001ff7d44",69,"no","blues",1,3,0,2375
"5aed0b3aaa05510001ff7d44",70,"no","blues",17,19,1,2418
"5aed0b3aaa05510001ff7d44",71,"no","yellows",14,12,1,912
"5aed0b3aaa05510001ff7d44",72,"no","blues",13,11,1,1923
"5aed0b3aaa05510001ff7d44",73,"no","reds",14,12,1,1080
"5aed0b3aaa05510001ff7d44",74,"no","browns",1,3,1,1256
"5aed0b3aaa05510001ff7d44",75,"no","browns",3,1,1,2156
"5aed0b3aaa05510001ff7d44",76,"no","reds",10,8,1,2026
"5aed0b3aaa05510001ff7d44",77,"no","browns",15,13,1,1851
"5aed0b3aaa05510001ff7d44",78,"no","yellows",1,3,1,1655
"5aed0b3aaa05510001ff7d44",79,"no","browns",12,10,1,1491
"5aed0b3aaa05510001ff7d44",80,"no","yellows",8,6,1,1781
"5aed0b3aaa05510001ff7d44",81,"no","reds",10,12,0,1958
"5aed0b3aaa05510001ff7d44",82,"no","reds",12,14,0,1261
"5aed0b3aaa05510001ff7d44",83,"no","reds",3,5,1,1090
"5aed0b3aaa05510001ff7d44",84,"no","browns",18,16,1,1242
"5aed0b3aaa05510001ff7d44",85,"no","reds",18,16,1,1394
"5aed0b3aaa05510001ff7d44",86,"no","browns",15,17,0,1439
"5aed0b3aaa05510001ff7d44",87,"no","browns",7,5,1,882
"5aed0b3aaa05510001ff7d44",88,"no","blues",15,17,1,1324
"5aed0b3aaa05510001ff7d44",89,"no","yellows",4,2,1,2286
"5aed0b3aaa05510001ff7d44",90,"no","reds",3,1,1,1669
"5aed0b3aaa05510001ff7d44",91,"no","yellows",9,11,0,1166
"5aed0b3aaa05510001ff7d44",92,"no","blues",5,7,1,2366
"5aed0b3aaa05510001ff7d44",93,"no","yellows",7,9,1,1310
"5aed0b3aaa05510001ff7d44",94,"no","blues",3,5,1,1272
"5aed0b3aaa05510001ff7d44",95,"no","reds",15,17,0,1729
"5aed0b3aaa05510001ff7d44",96,"no","blues",4,6,1,1932
"5aed0b3aaa05510001ff7d44",97,"no","browns",7,9,0,927
"5aed0b3aaa05510001ff7d44",98,"no","yellows",10,8,1,1935
"5aed0b3aaa05510001ff7d44",99,"no","yellows",8,10,0,1239
"5aed0b3aaa05510001ff7d44",100,"no","browns",9,11,1,1841
"5aed0b3aaa05510001ff7d44",101,"no","reds",9,7,1,2200
"5aed0b3aaa05510001ff7d44",102,"no","reds",13,15,0,1876
"5aed0b3aaa05510001ff7d44",103,"no","yellows",5,3,1,1422
"5aed0b3aaa05510001ff7d44",104,"no","reds",4,6,0,2187
"5aed0b3aaa05510001ff7d44",105,"no","browns",6,4,1,909
"5aed0b3aaa05510001ff7d44",107,"no","blues",15,13,1,1505
"5aed0b3aaa05510001ff7d44",108,"no","yellows",8,6,1,1901
"5aed0b3aaa05510001ff7d44",109,"no","blues",6,4,1,2476
"5aed0b3aaa05510001ff7d44",110,"no","blues",8,10,0,1619
"5aed0b3aaa05510001ff7d44",111,"no","reds",14,16,0,2049
"5aed0b3aaa05510001ff7d44",112,"no","reds",15,17,0,1033
"5aed0b3aaa05510001ff7d44",113,"no","reds",11,9,1,1483
"5aed0b3aaa05510001ff7d44",114,"no","yellows",17,15,1,1508
"5aed0b3aaa05510001ff7d44",115,"no","yellows",18,20,0,1379
"5aed0b3aaa05510001ff7d44",116,"no","yellows",12,10,1,2732
"5aed0b3aaa05510001ff7d44",117,"no","reds",1,3,1,3075
"5aed0b3aaa05510001ff7d44",118,"no","browns",16,18,0,2076
"5aed0b3aaa05510001ff7d44",119,"no","yellows",6,8,0,1167
"5aed0b3aaa05510001ff7d44",120,"no","browns",19,17,0,2861
"5aed0b3aaa05510001ff7d44",121,"no","browns",13,11,1,3187
"5aed0b3aaa05510001ff7d44",122,"no","browns",13,11,1,1076
"5aed0b3aaa05510001ff7d44",123,"no","reds",4,2,1,2009
"5aed0b3aaa05510001ff7d44",124,"no","browns",15,13,1,1543
"5aed0b3aaa05510001ff7d44",125,"no","blues",16,14,1,3214
"5aed0b3aaa05510001ff7d44",126,"no","browns",6,8,0,1374
"5aed0b3aaa05510001ff7d44",127,"no","blues",6,8,1,2278
"5aed0b3aaa05510001ff7d44",128,"no","blues",5,3,1,1606
"5aed0b3aaa05510001ff7d44",129,"no","browns",3,1,1,1123
"5aed0b3aaa05510001ff7d44",130,"no","blues",18,20,0,3153
"5aed0b3aaa05510001ff7d44",131,"no","blues",6,4,1,1844
"5aed0b3aaa05510001ff7d44",132,"no","yellows",18,16,1,921
"5aed0b3aaa05510001ff7d44",133,"no","browns",14,16,0,1722
"5aed0b3aaa05510001ff7d44",134,"no","reds",3,5,1,3368
"5aed0b3aaa05510001ff7d44",135,"no","browns",10,12,0,1522
"5aed0b3aaa05510001ff7d44",136,"no","reds",7,5,1,1902
"5aed0b3aaa05510001ff7d44",137,"no","yellows",8,10,0,1294
"5aed0b3aaa05510001ff7d44",138,"no","yellows",4,6,1,2341
"5aed0b3aaa05510001ff7d44",139,"no","browns",5,3,1,1262
"5aed0b3aaa05510001ff7d44",140,"no","browns",20,18,1,2662
"5aed0b3aaa05510001ff7d44",141,"no","reds",16,18,0,1547
"5aed0b3aaa05510001ff7d44",142,"no","browns",15,17,0,2477
"5aed0b3aaa05510001ff7d44",143,"no","blues",20,18,1,1302
"5aed0b3aaa05510001ff7d44",144,"no","browns",4,2,1,1746
"5aed0b3aaa05510001ff7d44",145,"no","reds",7,9,0,1555
"5aed0b3aaa05510001ff7d44",146,"no","browns",4,6,0,1365
"5aed0b3aaa05510001ff7d44",147,"no","yellows",10,12,0,1525
"5aed0b3aaa05510001ff7d44",148,"no","browns",12,14,0,2566
"5aed0b3aaa05510001ff7d44",149,"no","browns",16,14,1,1485
"5aed0b3aaa05510001ff7d44",150,"no","yellows",16,14,1,992
"5aed0b3aaa05510001ff7d44",151,"no","reds",10,8,1,1732
"5aed0b3aaa05510001ff7d44",152,"no","yellows",15,13,1,1410
"5aed0b3aaa05510001ff7d44",153,"no","yellows",3,1,1,1420
"5aed0b3aaa05510001ff7d44",154,"no","browns",12,14,0,2407
"5aed0b3aaa05510001ff7d44",155,"no","reds",11,9,1,1403
"5aed0b3aaa05510001ff7d44",156,"no","reds",5,3,1,1386
"5aed0b3aaa05510001ff7d44",158,"no","browns",5,7,0,1552
"5aed0b3aaa05510001ff7d44",159,"no","yellows",11,9,1,3347
"5aed0b3aaa05510001ff7d44",160,"no","yellows",7,5,1,1661
"5aed0b3aaa05510001ff7d44",161,"no","blues",18,16,1,1761
"5aed0b3aaa05510001ff7d44",162,"no","reds",10,12,0,1038
"5aed0b3aaa05510001ff7d44",163,"no","yellows",15,17,0,1213
"5aed0b3aaa05510001ff7d44",164,"no","browns",11,9,1,1552
"5aed0b3aaa05510001ff7d44",165,"no","browns",11,9,1,1218
"5aed0b3aaa05510001ff7d44",166,"no","yellows",13,11,1,1006
"5aed0b3aaa05510001ff7d44",167,"no","blues",17,15,1,1769
"5aed0b3aaa05510001ff7d44",168,"no","yellows",7,5,1,1646
"5aed0b3aaa05510001ff7d44",169,"no","reds",13,11,1,1280
"5aed0b3aaa05510001ff7d44",170,"no","yellows",3,5,1,2229
"5aed0b3aaa05510001ff7d44",171,"no","reds",5,7,0,2805
"5aed0b3aaa05510001ff7d44",172,"no","reds",11,13,0,2185
"5aed0b3aaa05510001ff7d44",173,"no","blues",7,5,0,3071
"5aed0b3aaa05510001ff7d44",174,"no","reds",4,6,0,1236
"5aed0b3aaa05510001ff7d44",175,"no","yellows",11,13,0,1921
"5aed0b3aaa05510001ff7d44",176,"no","browns",3,5,1,2572
"5aed0b3aaa05510001ff7d44",177,"no","reds",1,3,1,2214
"5aed0b3aaa05510001ff7d44",178,"no","yellows",17,15,1,1461
"5aed0b3aaa05510001ff7d44",179,"no","reds",13,11,1,1625
"5aed0b3aaa05510001ff7d44",180,"no","yellows",14,16,0,1344
"5aed0b3aaa05510001ff7d44",181,"no","reds",17,19,1,1695
"5aed0b3aaa05510001ff7d44",182,"no","reds",7,9,0,2658
"5aed0b3aaa05510001ff7d44",183,"no","reds",12,10,1,1521
"5aed0b3aaa05510001ff7d44",184,"no","browns",18,16,1,1601
"5aed0b3aaa05510001ff7d44",185,"no","reds",12,14,0,1883
"5aed0b3aaa05510001ff7d44",186,"no","blues",12,14,0,2214
"5aed0b3aaa05510001ff7d44",187,"no","browns",6,4,1,1603
"5aed0b3aaa05510001ff7d44",188,"no","reds",9,11,0,2154
"5aed0b3aaa05510001ff7d44",189,"no","reds",5,3,1,1708
"5aed0b3aaa05510001ff7d44",190,"no","blues",9,11,1,3181
"5aed0b3aaa05510001ff7d44",191,"no","yellows",11,9,1,1277
"5aed0b3aaa05510001ff7d44",192,"no","reds",9,7,1,1101
"5aed0b3aaa05510001ff7d44",193,"no","blues",14,16,0,2226
"5aed0b3aaa05510001ff7d44",194,"no","browns",4,2,1,1566
"5aed0b3aaa05510001ff7d44",195,"no","reds",17,15,1,2620
"5aed0b3aaa05510001ff7d44",196,"no","browns",1,3,1,1569
"5aed0b3aaa05510001ff7d44",197,"no","browns",17,19,0,1922
"5aed0b3aaa05510001ff7d44",198,"no","yellows",19,17,1,996
"5aed0b3aaa05510001ff7d44",199,"no","blues",19,17,1,1078
"5aed0b3aaa05510001ff7d44",200,"no","yellows",18,16,1,943
"5aed0b3aaa05510001ff7d44",201,"no","browns",16,14,1,1701
"5aed0b3aaa05510001ff7d44",202,"no","browns",2,4,1,1862
"5aed0b3aaa05510001ff7d44",203,"no","blues",14,12,1,1801
"5aed0b3aaa05510001ff7d44",204,"no","blues",10,8,1,1187
"5aed0b3aaa05510001ff7d44",205,"no","blues",18,16,1,1703
"5aed0b3aaa05510001ff7d44",206,"no","blues",10,12,1,1348
"5aed0b3aaa05510001ff7d44",207,"no","reds",2,4,1,1882
"5aed0b3aaa05510001ff7d44",209,"no","yellows",15,17,0,927
"5aed0b3aaa05510001ff7d44",210,"no","reds",14,16,0,2448
"5aed0b3aaa05510001ff7d44",211,"no","yellows",5,7,1,3654
"5aed0b3aaa05510001ff7d44",212,"no","reds",7,5,1,1239
"5aed0b3aaa05510001ff7d44",213,"no","blues",16,18,0,1831
"5aed0b3aaa05510001ff7d44",214,"no","blues",12,10,1,831
"5aed0b3aaa05510001ff7d44",215,"no","browns",3,5,1,1034
"5aed0b3aaa05510001ff7d44",216,"no","browns",10,12,0,1145
"5aed0b3aaa05510001ff7d44",217,"no","reds",8,10,0,4252
"5aed0b3aaa05510001ff7d44",218,"no","yellows",16,18,0,1486
"5aed0b3aaa05510001ff7d44",219,"no","blues",7,5,1,1421
"5aed0b3aaa05510001ff7d44",220,"no","blues",12,10,1,1030
"5aed0b3aaa05510001ff7d44",221,"no","yellows",6,4,1,2531
"5aed0b3aaa05510001ff7d44",222,"no","blues",8,6,1,2321
"5aed0b3aaa05510001ff7d44",223,"no","reds",12,10,1,1273
"5aed0b3aaa05510001ff7d44",224,"no","browns",14,12,1,1680
"5aed0b3aaa05510001ff7d44",225,"no","blues",10,8,1,1172
"5aed0b3aaa05510001ff7d44",226,"no","blues",3,1,1,2308
"5aed0b3aaa05510001ff7d44",227,"no","yellows",12,14,0,1195
"5aed0b3aaa05510001ff7d44",228,"no","reds",16,14,1,2185
"5aed0b3aaa05510001ff7d44",229,"no","blues",4,2,1,1222
"5aed0b3aaa05510001ff7d44",230,"no","blues",14,12,1,2507
"5aed0b3aaa05510001ff7d44",231,"no","blues",13,15,0,1815
"5aed0b3aaa05510001ff7d44",232,"no","reds",11,13,0,1343
"5aed0b3aaa05510001ff7d44",233,"no","yellows",19,17,1,2133
"5aed0b3aaa05510001ff7d44",234,"no","reds",15,13,1,1959
"5aed0b3aaa05510001ff7d44",235,"no","browns",7,5,1,2204
"5aed0b3aaa05510001ff7d44",236,"no","blues",8,6,1,839
"5aed0b3aaa05510001ff7d44",237,"no","reds",8,10,0,1864
"5aed0b3aaa05510001ff7d44",238,"no","blues",12,14,0,2901
"5aed0b3aaa05510001ff7d44",239,"no","yellows",2,4,1,2126
"5aed0b3aaa05510001ff7d44",240,"no","blues",7,9,1,1658
"5aed0b3aaa05510001ff7d44",241,"no","yellows",18,20,0,2326
"5aed0b3aaa05510001ff7d44",242,"no","yellows",1,3,1,2319
"5aed0b3aaa05510001ff7d44",243,"no","yellows",5,3,1,3532
"5aed0b3aaa05510001ff7d44",244,"no","reds",20,18,1,1417
"5aed0b3aaa05510001ff7d44",245,"no","blues",7,9,0,2734
"5aed0b3aaa05510001ff7d44",246,"no","reds",9,11,1,3185
"5aed0b3aaa05510001ff7d44",247,"no","yellows",10,12,0,1390
"5aed0b3aaa05510001ff7d44",248,"no","reds",13,15,0,1308
"5aed0b3aaa05510001ff7d44",249,"no","reds",16,14,1,1766
"5aed0b3aaa05510001ff7d44",250,"no","browns",16,18,0,2912
"5aed0b3aaa05510001ff7d44",251,"no","browns",4,6,1,2112
"5aed0b3aaa05510001ff7d44",252,"no","browns",7,9,0,1108
"5aed0b3aaa05510001ff7d44",253,"no","blues",18,20,1,2357
"5aed0b3aaa05510001ff7d44",254,"no","reds",18,20,1,2237
"5aed0b3aaa05510001ff7d44",255,"no","reds",15,13,1,1385
"5aed0b3aaa05510001ff7d44",256,"no","reds",14,12,1,1753
"5aed0b3aaa05510001ff7d44",257,"no","browns",9,7,1,1096
"5aed0b3aaa05510001ff7d44",258,"no","browns",10,8,1,768
"5aed0b3aaa05510001ff7d44",260,"no","yellows",4,2,1,1295
"5aed0b3aaa05510001ff7d44",261,"no","browns",13,15,0,1328
"5aed0b3aaa05510001ff7d44",262,"no","reds",6,8,1,1123
"5aed0b3aaa05510001ff7d44",263,"no","yellows",9,7,1,1876
"5aed0b3aaa05510001ff7d44",264,"no","reds",18,20,1,3768
"5aed0b3aaa05510001ff7d44",265,"no","blues",1,3,1,2560
"5aed0b3aaa05510001ff7d44",266,"no","yellows",10,8,1,711
"5aed0b3aaa05510001ff7d44",267,"no","blues",9,7,1,1228
"5aed0b3aaa05510001ff7d44",268,"no","reds",17,19,0,1964
"5aed0b3aaa05510001ff7d44",269,"no","yellows",9,11,0,794
"5aed0b3aaa05510001ff7d44",270,"no","reds",5,7,1,2097
"5aed0b3aaa05510001ff7d44",271,"no","yellows",12,10,1,1386
"5aed0b3aaa05510001ff7d44",272,"no","yellows",13,15,0,1464
"5aed0b3aaa05510001ff7d44",273,"no","blues",16,14,1,1634
"5aed0b3aaa05510001ff7d44",274,"no","blues",3,1,1,782
"5aed0b3aaa05510001ff7d44",275,"no","blues",11,13,0,2613
"5aed0b3aaa05510001ff7d44",276,"no","browns",17,15,1,1403
"5aed0b3aaa05510001ff7d44",277,"no","browns",10,8,1,2380
"5aed0b3aaa05510001ff7d44",278,"no","reds",6,4,1,2388
"5aed0b3aaa05510001ff7d44",279,"no","yellows",12,14,0,1659
"5aed0b3aaa05510001ff7d44",280,"no","blues",14,16,1,1848
"5aed0b3aaa05510001ff7d44",281,"no","reds",19,17,1,2490
"5aed0b3aaa05510001ff7d44",282,"no","browns",6,8,1,1586
"5aed0b3aaa05510001ff7d44",283,"no","blues",15,13,1,1595
"5aed0b3aaa05510001ff7d44",284,"no","blues",11,9,1,1794
"5aed0b3aaa05510001ff7d44",285,"no","blues",17,15,1,1191
"5aed0b3aaa05510001ff7d44",286,"no","yellows",20,18,1,1551
"5aed0b3aaa05510001ff7d44",287,"no","browns",17,15,1,1843
"5aed0b3aaa05510001ff7d44",288,"no","reds",3,1,1,1617
"5aed0b3aaa05510001ff7d44",289,"no","blues",2,4,1,1267
"5aed0b3aaa05510001ff7d44",290,"no","yellows",16,18,0,2384
"5aed0b3aaa05510001ff7d44",291,"no","blues",11,9,1,2653
"5aed0b3aaa05510001ff7d44",292,"no","browns",5,3,1,860
"5aed0b3aaa05510001ff7d44",293,"no","browns",17,19,0,1445
"5aed0b3aaa05510001ff7d44",294,"no","blues",13,11,0,1906
"5aed0b3aaa05510001ff7d44",295,"no","yellows",3,1,1,1541
"5aed0b3aaa05510001ff7d44",296,"no","blues",17,19,1,2186
"5aed0b3aaa05510001ff7d44",297,"no","reds",6,4,1,984
"5aed0b3aaa05510001ff7d44",298,"no","reds",19,17,1,1866
"5b5345492a4d0c0001ae2e12",6,"yes","blues",16,14,1,1588.89999997616
"5b5345492a4d0c0001ae2e12",7,"yes","yellows",8,6,1,2033.80000001192
"5b5345492a4d0c0001ae2e12",8,"yes","yellows",11,9,1,1560.90000003576
"5b5345492a4d0c0001ae2e12",9,"yes","blues",3,5,1,1737.69999998808
"5b5345492a4d0c0001ae2e12",10,"yes","reds",16,18,1,1552.80000001192
"5b5345492a4d0c0001ae2e12",11,"yes","reds",13,11,0,1112.5
"5b5345492a4d0c0001ae2e12",12,"yes","reds",10,12,1,985.699999988079
"5b5345492a4d0c0001ae2e12",13,"yes","yellows",11,13,1,2225.40000003576
"5b5345492a4d0c0001ae2e12",14,"yes","yellows",10,8,1,1210.10000002384
"5b5345492a4d0c0001ae2e12",15,"yes","yellows",6,4,1,944.699999988079
"5b5345492a4d0c0001ae2e12",16,"yes","browns",17,19,1,1105.60000002384
"5b5345492a4d0c0001ae2e12",17,"yes","reds",10,8,1,3593.69999998808
"5b5345492a4d0c0001ae2e12",18,"yes","blues",6,8,1,1704.80000001192
"5b5345492a4d0c0001ae2e12",19,"yes","blues",7,5,1,1049.80000001192
"5b5345492a4d0c0001ae2e12",20,"yes","reds",14,12,1,1105.5
"5b5345492a4d0c0001ae2e12",21,"yes","reds",8,6,1,2192.80000001192
"5b5345492a4d0c0001ae2e12",22,"yes","browns",14,12,1,1586
"5b5345492a4d0c0001ae2e12",23,"yes","reds",12,14,0,1042
"5b5345492a4d0c0001ae2e12",24,"yes","reds",15,13,1,1281.5
"5b5345492a4d0c0001ae2e12",25,"yes","reds",15,17,1,4018.30000001192
"5b5345492a4d0c0001ae2e12",26,"yes","browns",8,10,1,1425.60000002384
"5b5345492a4d0c0001ae2e12",27,"yes","blues",19,17,1,954.100000023842
"5b5345492a4d0c0001ae2e12",28,"yes","blues",11,9,1,1729.5
"5b5345492a4d0c0001ae2e12",29,"yes","blues",7,9,1,873.600000023842
"5b5345492a4d0c0001ae2e12",30,"yes","browns",10,8,1,994.399999976158
"5b5345492a4d0c0001ae2e12",31,"yes","browns",7,5,1,1232.80000001192
"5b5345492a4d0c0001ae2e12",32,"yes","blues",6,8,1,1465.60000002384
"5b5345492a4d0c0001ae2e12",33,"yes","browns",9,11,1,1634
"5b5345492a4d0c0001ae2e12",34,"yes","reds",9,7,1,1793.80000001192
"5b5345492a4d0c0001ae2e12",35,"yes","yellows",12,14,1,1914.29999995232
"5b5345492a4d0c0001ae2e12",36,"yes","blues",14,16,1,4137.10000002384
"5b5345492a4d0c0001ae2e12",37,"yes","yellows",16,18,1,1449.80000001192
"5b5345492a4d0c0001ae2e12",38,"yes","blues",17,19,0,1049.59999996424
"5b5345492a4d0c0001ae2e12",39,"yes","yellows",12,10,1,1769.5
"5b5345492a4d0c0001ae2e12",40,"yes","browns",4,2,1,1529.80000001192
"5b5345492a4d0c0001ae2e12",41,"yes","browns",9,11,1,1641.09999996424
"5b5345492a4d0c0001ae2e12",42,"yes","blues",3,1,1,1337.80000001192
"5b5345492a4d0c0001ae2e12",43,"yes","blues",8,6,1,769.800000011921
"5b5345492a4d0c0001ae2e12",44,"yes","reds",9,11,1,4225.30000001192
"5b5345492a4d0c0001ae2e12",45,"yes","yellows",9,11,1,1841.59999996424
"5b5345492a4d0c0001ae2e12",46,"yes","browns",9,7,1,817.800000011921
"5b5345492a4d0c0001ae2e12",47,"yes","browns",16,18,0,793.600000023842
"5b5345492a4d0c0001ae2e12",48,"yes","browns",15,13,1,746
"5b5345492a4d0c0001ae2e12",49,"yes","reds",16,18,0,4473.5
"5b5345492a4d0c0001ae2e12",50,"yes","blues",12,14,1,5377.10000002384
"5b5345492a4d0c0001ae2e12",51,"yes","reds",1,3,1,1394.60000002384
"5b5345492a4d0c0001ae2e12",52,"yes","browns",14,12,1,1081.09999996424
"5b5345492a4d0c0001ae2e12",53,"yes","browns",9,7,1,1040.60000002384
"5b5345492a4d0c0001ae2e12",54,"yes","blues",2,4,1,889.800000011921
"5b5345492a4d0c0001ae2e12",56,"yes","browns",20,18,1,909.200000047684
"5b5345492a4d0c0001ae2e12",57,"yes","blues",18,16,1,981.599999964237
"5b5345492a4d0c0001ae2e12",58,"yes","yellows",10,12,1,3578.09999996424
"5b5345492a4d0c0001ae2e12",59,"yes","browns",16,18,1,2049.19999998808
"5b5345492a4d0c0001ae2e12",60,"yes","browns",18,16,1,896.899999976158
"5b5345492a4d0c0001ae2e12",61,"yes","reds",3,1,1,1081.5
"5b5345492a4d0c0001ae2e12",62,"yes","blues",17,15,1,793.5
"5b5345492a4d0c0001ae2e12",63,"yes","reds",9,11,1,3178
"5b5345492a4d0c0001ae2e12",64,"yes","yellows",1,3,1,1033
"5b5345492a4d0c0001ae2e12",65,"yes","blues",13,11,1,833.400000035763
"5b5345492a4d0c0001ae2e12",66,"yes","browns",16,14,1,712.400000035763
"5b5345492a4d0c0001ae2e12",67,"yes","blues",8,6,1,1793.69999998808
"5b5345492a4d0c0001ae2e12",68,"yes","browns",2,4,1,833.599999964237
"5b5345492a4d0c0001ae2e12",69,"yes","blues",13,15,1,809.600000023842
"5b5345492a4d0c0001ae2e12",70,"yes","blues",4,2,1,712.800000011921
"5b5345492a4d0c0001ae2e12",71,"yes","browns",14,16,1,1736.69999998808
"5b5345492a4d0c0001ae2e12",72,"yes","blues",14,12,1,753.399999976158
"5b5345492a4d0c0001ae2e12",73,"yes","browns",18,20,1,1584.90000003576
"5b5345492a4d0c0001ae2e12",74,"yes","blues",12,10,1,689.699999988079
"5b5345492a4d0c0001ae2e12",75,"yes","browns",15,13,1,792.799999952316
"5b5345492a4d0c0001ae2e12",76,"yes","browns",12,10,1,841
"5b5345492a4d0c0001ae2e12",77,"yes","blues",9,7,1,688.800000011921
"5b5345492a4d0c0001ae2e12",78,"yes","yellows",18,20,1,889
"5b5345492a4d0c0001ae2e12",79,"yes","browns",6,8,1,890.099999964237
"5b5345492a4d0c0001ae2e12",80,"yes","yellows",10,8,1,993.699999988079
"5b5345492a4d0c0001ae2e12",81,"yes","reds",4,2,1,2879.60000002384
"5b5345492a4d0c0001ae2e12",82,"yes","reds",17,15,0,6065.69999998808
"5b5345492a4d0c0001ae2e12",83,"yes","yellows",7,5,1,1528.69999998808
"5b5345492a4d0c0001ae2e12",84,"yes","blues",18,16,1,784.699999988079
"5b5345492a4d0c0001ae2e12",85,"yes","reds",18,16,0,5769.30000001192
"5b5345492a4d0c0001ae2e12",86,"yes","blues",10,8,1,928.5
"5b5345492a4d0c0001ae2e12",87,"yes","browns",20,18,1,745.600000023842
"5b5345492a4d0c0001ae2e12",88,"yes","yellows",15,13,1,1696.19999998808
"5b5345492a4d0c0001ae2e12",89,"yes","blues",16,14,1,665
"5b5345492a4d0c0001ae2e12",90,"yes","reds",13,15,0,848.600000023842
"5b5345492a4d0c0001ae2e12",91,"yes","browns",11,13,0,768.900000035763
"5b5345492a4d0c0001ae2e12",92,"yes","yellows",1,3,1,2016.30000001192
"5b5345492a4d0c0001ae2e12",93,"yes","reds",6,4,1,2560.39999997616
"5b5345492a4d0c0001ae2e12",94,"yes","blues",9,7,1,1465.10000002384
"5b5345492a4d0c0001ae2e12",95,"yes","yellows",3,1,1,895.699999988079
"5b5345492a4d0c0001ae2e12",96,"yes","browns",19,17,1,816.599999964237
"5b5345492a4d0c0001ae2e12",97,"yes","blues",9,11,1,1289
"5b5345492a4d0c0001ae2e12",98,"yes","reds",8,6,1,2457
"5b5345492a4d0c0001ae2e12",99,"yes","yellows",9,7,1,912
"5b5345492a4d0c0001ae2e12",100,"yes","browns",19,17,1,1141.09999996424
"5b5345492a4d0c0001ae2e12",101,"yes","yellows",6,4,1,1697.39999997616
"5b5345492a4d0c0001ae2e12",102,"yes","browns",18,20,1,1128.39999997616
"5b5345492a4d0c0001ae2e12",103,"yes","reds",18,20,0,6409.5
"5b5345492a4d0c0001ae2e12",104,"yes","reds",20,18,1,863.199999988079
"5b5345492a4d0c0001ae2e12",105,"yes","browns",10,12,1,1625.09999996424
"5b5345492a4d0c0001ae2e12",107,"yes","browns",4,6,1,949.5
"5b5345492a4d0c0001ae2e12",108,"yes","browns",11,9,1,849
"5b5345492a4d0c0001ae2e12",109,"yes","browns",14,16,1,896.799999952316
"5b5345492a4d0c0001ae2e12",110,"yes","blues",3,5,1,809
"5b5345492a4d0c0001ae2e12",111,"yes","blues",3,1,1,838.5
"5b5345492a4d0c0001ae2e12",112,"yes","reds",17,15,1,4610
"5b5345492a4d0c0001ae2e12",113,"yes","blues",4,6,1,856.300000011921
"5b5345492a4d0c0001ae2e12",114,"yes","blues",18,20,0,768.5
"5b5345492a4d0c0001ae2e12",115,"yes","yellows",4,2,1,849.299999952316
"5b5345492a4d0c0001ae2e12",116,"yes","yellows",20,18,1,1376.69999998808
"5b5345492a4d0c0001ae2e12",117,"yes","yellows",9,7,1,904.400000035763
"5b5345492a4d0c0001ae2e12",118,"yes","blues",2,4,1,2608.39999997616
"5b5345492a4d0c0001ae2e12",119,"yes","blues",12,10,1,1832.30000001192
"5b5345492a4d0c0001ae2e12",120,"yes","yellows",6,8,1,1073.10000002384
"5b5345492a4d0c0001ae2e12",121,"yes","blues",17,15,1,1032
"5b5345492a4d0c0001ae2e12",122,"yes","blues",16,18,1,1784.5
"5b5345492a4d0c0001ae2e12",123,"yes","reds",14,16,1,3504.80000001192
"5b5345492a4d0c0001ae2e12",124,"yes","blues",20,18,1,2481.5
"5b5345492a4d0c0001ae2e12",125,"yes","blues",17,19,1,1504.10000002384
"5b5345492a4d0c0001ae2e12",126,"yes","reds",1,3,0,1791.70000004768
"5b5345492a4d0c0001ae2e12",127,"yes","blues",18,20,1,3928.80000001192
"5b5345492a4d0c0001ae2e12",128,"yes","yellows",8,10,1,2791.89999997616
"5b5345492a4d0c0001ae2e12",129,"yes","reds",15,17,1,2361
"5b5345492a4d0c0001ae2e12",130,"yes","browns",17,15,1,966.600000023842
"5b5345492a4d0c0001ae2e12",131,"yes","blues",5,7,1,1568
"5b5345492a4d0c0001ae2e12",132,"yes","reds",6,8,1,1912.5
"5b5345492a4d0c0001ae2e12",133,"yes","yellows",2,4,1,1064.19999998808
"5b5345492a4d0c0001ae2e12",134,"yes","browns",8,6,1,1144.5
"5b5345492a4d0c0001ae2e12",135,"yes","yellows",5,3,1,903.600000023842
"5b5345492a4d0c0001ae2e12",136,"yes","reds",6,8,1,1504.80000001192
"5b5345492a4d0c0001ae2e12",137,"yes","browns",13,15,1,1013.89999997616
"5b5345492a4d0c0001ae2e12",138,"yes","browns",12,14,1,1621.89999997616
"5b5345492a4d0c0001ae2e12",139,"yes","yellows",15,17,1,1216.69999998808
"5b5345492a4d0c0001ae2e12",140,"yes","yellows",7,5,1,928.300000011921
"5b5345492a4d0c0001ae2e12",141,"yes","blues",15,17,1,1080
"5b5345492a4d0c0001ae2e12",142,"yes","reds",18,20,0,2592.29999995232
"5b5345492a4d0c0001ae2e12",143,"yes","yellows",5,3,1,1088
"5b5345492a4d0c0001ae2e12",144,"yes","reds",3,5,1,848.699999988079
"5b5345492a4d0c0001ae2e12",145,"yes","reds",13,11,1,831.399999976158
"5b5345492a4d0c0001ae2e12",146,"yes","blues",13,11,1,2648.5
"5b5345492a4d0c0001ae2e12",147,"yes","reds",8,10,1,1087.69999998808
"5b5345492a4d0c0001ae2e12",148,"yes","blues",1,3,1,880.100000023842
"5b5345492a4d0c0001ae2e12",149,"yes","yellows",3,5,1,1080.09999996424
"5b5345492a4d0c0001ae2e12",150,"yes","yellows",16,18,1,1388.90000003576
"5b5345492a4d0c0001ae2e12",151,"yes","browns",10,12,1,2128.5
