subject_id,trial_index,is_monolingual,colour,num,resp,resp_fixed,rt
5918774ba391f200011b281f,300,yes,yellows,1,лимонный,лимонный,33853
5918774ba391f200011b281f,301,yes,yellows,20,оранжевый,оранжевый,26617
5918774ba391f200011b281f,302,yes,browns,20,коричневый,коричневый,42426
5918774ba391f200011b281f,303,yes,blues,1,голубой,голубой,21914
5918774ba391f200011b281f,304,yes,browns,1,светло-коричневый,светло-коричневый,77034
5918774ba391f200011b281f,305,yes,reds,1,розовый,розовый,28894
5918774ba391f200011b281f,306,yes,reds,20,красный,красный,18771
5918774ba391f200011b281f,307,yes,blues,20,синий,синий,16240
59f096e47f3d71000171e46b,300,yes,yellows,1,желтый,желтый,14307.5999999046
59f096e47f3d71000171e46b,301,yes,reds,20,красный,красный,7013.29999995232
59f096e47f3d71000171e46b,302,yes,blues,1,голубой,голубой,14928.9000000954
59f096e47f3d71000171e46b,303,yes,browns,20,коричневый,коричневый,5964.09999990463
59f096e47f3d71000171e46b,304,yes,yellows,20,оранжевый,оранжевый,10561.5
59f096e47f3d71000171e46b,305,yes,reds,1,розовый,розовый,5452.5
59f096e47f3d71000171e46b,306,yes,browns,1,светло-коричневый,светло-коричневый,29367.5999999046
59f096e47f3d71000171e46b,307,yes,blues,20,синий,синий,5113
5a28738fb4a5de00011af471,300,yes,blues,20,sinij,синий,4706.60000002384
5a28738fb4a5de00011af471,301,yes,yellows,1,zheltij,желтый,2839.5
5a28738fb4a5de00011af471,302,yes,yellows,20,oranzhevij,оранжевый,4240.10000002384
5a28738fb4a5de00011af471,303,yes,blues,1,goluboi,голубой,3287
5a28738fb4a5de00011af471,304,yes,reds,1,rozovij,розовый,2787.5
5a28738fb4a5de00011af471,305,yes,browns,20,korichnevij,коричневый,4200.5
5a28738fb4a5de00011af471,306,yes,reds,20,krasnij,красный,3805
5a28738fb4a5de00011af471,307,yes,browns,1,bezhevij,бежевый,3876.5
5ad1dd7eb438910001ac9997,300,yes,yellows,1,желтый,желтый,11769.6999999955
5ad1dd7eb438910001ac9997,301,yes,reds,20,красный,красный,2957.69999999553
5ad1dd7eb438910001ac9997,302,yes,browns,1,светло-коричневый,светло-коричневый,9566.09999999404
5ad1dd7eb438910001ac9997,303,yes,reds,1,розовый,розовый,3120.90000000596
5ad1dd7eb438910001ac9997,304,yes,blues,20,синий,синий,2159.29999999702
5ad1dd7eb438910001ac9997,305,yes,yellows,20,оранжевый,оранжевый,4209.39999999851
5ad1dd7eb438910001ac9997,306,yes,blues,1,голубой,голубой,3027.10000000149
5ad1dd7eb438910001ac9997,307,yes,browns,20,коричневый,коричневый,4078.29999999702
5aed0b3aaa05510001ff7d44,300,no,yellows,1,желтый,желтый,9022
5aed0b3aaa05510001ff7d44,301,no,blues,20,синий,синий,4815
5aed0b3aaa05510001ff7d44,302,no,browns,1,бежевый,бежевый,9191
5aed0b3aaa05510001ff7d44,303,no,blues,1,голубой,голубой,5419
5aed0b3aaa05510001ff7d44,304,no,reds,1,фуксия,фуксия,9069
5aed0b3aaa05510001ff7d44,305,no,browns,20,коричневый,коричневый,7384
5aed0b3aaa05510001ff7d44,306,no,yellows,20,оранжевый,оранжевый,6333
5aed0b3aaa05510001ff7d44,307,no,reds,20,красный,красный,4060
5b5345492a4d0c0001ae2e12,300,yes,yellows,20,оранжевый,оранжевый,5921.90000003576
5b5345492a4d0c0001ae2e12,301,yes,yellows,1,желтый,желтый,2262.60000002384
5b5345492a4d0c0001ae2e12,302,yes,reds,1,розовый,розовый,2477.19999998808
5b5345492a4d0c0001ae2e12,303,yes,browns,1,персиковый,персиковый,6110.89999997616
5b5345492a4d0c0001ae2e12,304,yes,browns,20,коричневый,коричневый,2702.69999998808
5b5345492a4d0c0001ae2e12,305,yes,blues,1,голубой,голубой,2445.69999998808
5b5345492a4d0c0001ae2e12,306,yes,blues,20,синий,синий,1934.69999998808
5b5345492a4d0c0001ae2e12,307,yes,reds,20,красный,красный,2142.10000002384
5b6c874bbd7c4b00017ece51,300,no,reds,20,алый,алый,6698.10000002384
5b6c874bbd7c4b00017ece51,301,no,yellows,20,оранжевый,оранжевый,5582.39999997616
5b6c874bbd7c4b00017ece51,302,no,blues,20,синий,синий,2566.30000007153
5b6c874bbd7c4b00017ece51,303,no,browns,1,кофе с молоком,кофе с молоком,7182.19999992847
5b6c874bbd7c4b00017ece51,304,no,reds,1,розовый,розовый,3133.79999995232
5b6c874bbd7c4b00017ece51,305,no,yellows,1,желтый,желтый,2844.5
5b6c874bbd7c4b00017ece51,306,no,blues,1,голубой,голубой,2964.39999997616
5b6c874bbd7c4b00017ece51,307,no,browns,20,коричневый,коричневый,4785.09999990463
5b8c611e4cd6dd0001bec307,300,yes,blues,1,голубой,голубой,16965.3000000007
5b8c611e4cd6dd0001bec307,301,yes,blues,20,синий,синий,3846.70000000112
5b8c611e4cd6dd0001bec307,302,yes,browns,20,коричневый,коричневый,16553.6999999993
5b8c611e4cd6dd0001bec307,303,yes,reds,20,красный,красный,3147.80000000075
5b8c611e4cd6dd0001bec307,304,yes,browns,1,бежевый,бежевый,6552.90000000037
5b8c611e4cd6dd0001bec307,305,yes,yellows,20,оранжевый,оранжевый,7378.40000000037
5b8c611e4cd6dd0001bec307,306,yes,reds,1,розовый,розовый,4029.30000000075
5b8c611e4cd6dd0001bec307,307,yes,yellows,1,желтый,желтый,7180.70000000112
5bdc5119a178310001314729,300,no,yellows,1,желтый,желтый,5766.79999999981
5bdc5119a178310001314729,301,no,blues,20,синий,синий,1995.89999999991
5bdc5119a178310001314729,302,no,blues,1,голубой,голубой,1833.5
5bdc5119a178310001314729,303,no,browns,1,бежевый,бежевый,4499.69999999972
5bdc5119a178310001314729,304,no,reds,20,красный,красный,1807.5
5bdc5119a178310001314729,305,no,browns,20,коричневый,коричневый,3822.69999999972
5bdc5119a178310001314729,306,no,reds,1,розовый,розовый,4193.10000000009
5bdc5119a178310001314729,307,no,yellows,20,оранжевый,оранжевый,2802
5bf9881e1eafa5000110c99a,300,yes,yellows,20,охра,охра,23578
5bf9881e1eafa5000110c99a,301,yes,browns,1,бледно-розовый,бледно-розовый,9403
5bf9881e1eafa5000110c99a,302,yes,blues,20,кобальтово-синий,кобальтово-синий,5646.29999995232
5bf9881e1eafa5000110c99a,303,yes,reds,1,светло-лиловый,светло-лиловый,10431.2999999523
5bf9881e1eafa5000110c99a,304,yes,browns,20,грязно-коричневый,грязно-коричневый,5683.20000004768
5bf9881e1eafa5000110c99a,305,yes,reds,20,ярко-красный,ярко-красный,7657.59999990463
5bf9881e1eafa5000110c99a,306,yes,yellows,1,желтый,желтый,5062.29999995232
5bf9881e1eafa5000110c99a,307,yes,blues,1,светло-голубой,светло-голубой,3950
5c01eab78d67760001151885,300,yes,blues,1,голубой,голубой,18062.2000000477
5c01eab78d67760001151885,301,yes,reds,20,красный,красный,23205
5c01eab78d67760001151885,302,yes,yellows,1,желтый,желтый,12693.3999999762
5c01eab78d67760001151885,303,yes,browns,1,светло-коричневый,светло-коричневый,17156.8999999762
5c01eab78d67760001151885,304,yes,browns,20,темно-коричневый,темно-коричневый,17930
5c01eab78d67760001151885,305,yes,yellows,20,оранжевый,оранжевый,22124.7999999523
5c01eab78d67760001151885,306,yes,reds,1,сиреневый,сиреневый,17695.4000000954
5c01eab78d67760001151885,307,yes,blues,20,синий,синий,12280
5c0ed000fd0c0a0001f881ea,300,yes,blues,20,синий,синий,6802
5c0ed000fd0c0a0001f881ea,301,yes,reds,1,розовый,розовый,5703
5c0ed000fd0c0a0001f881ea,302,yes,reds,20,красный,красный,3984
5c0ed000fd0c0a0001f881ea,303,yes,browns,1,светло-коричневый,светло-коричневый,12906
5c0ed000fd0c0a0001f881ea,304,yes,blues,1,голубой,голубой,3281
5c0ed000fd0c0a0001f881ea,305,yes,browns,20,темно-коричневый,темно-коричневый,8229
5c0ed000fd0c0a0001f881ea,306,yes,yellows,1,жёлтый,жёлтый,5729
5c0ed000fd0c0a0001f881ea,307,yes,yellows,20,оранжевый,оранжевый,4180
5c4765349afd7b000196f770,300,yes,reds,1,розовый,розовый,5797.10000002384
5c4765349afd7b000196f770,301,yes,browns,1,бежевый,бежевый,2909.5
5c4765349afd7b000196f770,302,yes,browns,20,коричневый,коричневый,2950.79999995232
5c4765349afd7b000196f770,303,yes,yellows,1,желтый,желтый,3490.80000001192
5c4765349afd7b000196f770,304,yes,blues,20,синий,синий,1627.09999996424
5c4765349afd7b000196f770,305,yes,reds,20,красный,красный,2304.79999995232
5c4765349afd7b000196f770,306,yes,blues,1,голубой,голубой,2227.80000001192
5c4765349afd7b000196f770,307,yes,yellows,20,оранжевый,оранжевый,2567.19999998808
5c629b836e03a00001d47bdd,300,no,yellows,20,оранжевый,оранжевый,11508.5
5c629b836e03a00001d47bdd,301,no,reds,1,розовый,розовый,4901
5c629b836e03a00001d47bdd,302,no,reds,20,красный,красный,3277
5c629b836e03a00001d47bdd,303,no,browns,20,кориченевый,кориченевый,4484.5
5c629b836e03a00001d47bdd,304,no,blues,20,синий,синий,2239.09999990463
5c629b836e03a00001d47bdd,305,no,blues,1,голубой,голубой,3737.30000007153
5c629b836e03a00001d47bdd,306,no,yellows,1,желтый,желтый,2779.5
5c629b836e03a00001d47bdd,307,no,browns,1,цвет кожи,цвет кожи,6474.20000004768
5c6c260dce4e560001f75731,300,yes,yellows,20,оранжевый,оранжевый,6284.19999998808
5c6c260dce4e560001f75731,301,yes,reds,20,красный,красный,2073.60000002384
5c6c260dce4e560001f75731,302,yes,reds,1,розовый,розовый,2240.5
5c6c260dce4e560001f75731,303,yes,blues,1,голубой,голубой,2180.30000001192
5c6c260dce4e560001f75731,304,yes,browns,1,бежевый,бежевый,4153.69999998808
5c6c260dce4e560001f75731,305,yes,blues,20,синий,синий,1841.19999998808
5c6c260dce4e560001f75731,306,yes,yellows,1,жёлтый,жёлтый,3677.39999997616
5c6c260dce4e560001f75731,307,yes,browns,20,коричневый,коричневый,3940.80000001192
5c739927a2f54e00018d7040,300,no,blues,20,sinij,синий,6074.25499998499
5c739927a2f54e00018d7040,301,no,reds,1,rozovij,розовый,3536.75999998813
5c739927a2f54e00018d7040,302,no,browns,20,koricnevij,коричневый,4568.31000000238
5c739927a2f54e00018d7040,303,no,reds,20,krasnij,красный,2803.09999996098
5c739927a2f54e00018d7040,304,no,yellows,1,zoltij,желтый,2419.47500000242
5c739927a2f54e00018d7040,305,no,browns,1,bezevij,бежевый,6217.94000000227
5c739927a2f54e00018d7040,306,no,blues,1,goluboi,голубой,6058.93999995897
5c739927a2f54e00018d7040,307,no,yellows,20,kirpichnij,кирпичный,5254.72000002628
5c88483929e4730001a0082a,300,yes,blues,1,голубок,голубой,2999
5c88483929e4730001a0082a,301,yes,yellows,1,желтый,желтый,5553
5c88483929e4730001a0082a,302,yes,reds,20,красный (алый),красный,7805
5c88483929e4730001a0082a,303,yes,reds,1,розовый,розовый,2259
5c88483929e4730001a0082a,304,yes,blues,20,синий,синий,2556
5c88483929e4730001a0082a,305,yes,browns,20,коричневый,коричневый,3533
5c88483929e4730001a0082a,306,yes,browns,1,бежевый,бежевый,5092
5c88483929e4730001a0082a,307,yes,yellows,20,оранжевый,оранжевый,2870
5c9920556825d900019bab7a,300,no,yellows,20,оранжевый,оранжевый,23688
5c9920556825d900019bab7a,301,no,yellows,1,бледно-желтый,бледно-желтый,11060
5c9920556825d900019bab7a,302,no,reds,1,розоватый,розоватый,7423
5c9920556825d900019bab7a,303,no,blues,20,цвет морской волны,цвет морской волны,8808
5c9920556825d900019bab7a,304,no,browns,1,бледный,бледный,7251
5c9920556825d900019bab7a,305,no,blues,1,светло-голубой,светло-голубой,7796
5c9920556825d900019bab7a,306,no,reds,20,красный,красный,6786
5c9920556825d900019bab7a,307,no,browns,20,грязно-коричневый,грязно-коричневый,12416
5cabf58293e29a0016018c30,300,no,blues,1,goluboy,голубой,9843
5cabf58293e29a0016018c30,301,no,browns,1,korichnevui,коричневый,8138
5cabf58293e29a0016018c30,302,no,browns,20,temno korichnevui,темно-коричневый,8086
5cabf58293e29a0016018c30,303,no,yellows,20,oranzhevuu,оранжевый,13009
5cabf58293e29a0016018c30,304,no,blues,20,sinii,синий,7209
5cabf58293e29a0016018c30,305,no,yellows,1,zheltui,желтый,12540
5cabf58293e29a0016018c30,306,no,reds,20,krasnui,красный,4052
5cabf58293e29a0016018c30,307,no,reds,1,rozovui,розовый,50260
5cadf60419bbcd0001c74e7b,300,yes,blues,1,голубой,голубой,18544
5cadf60419bbcd0001c74e7b,301,yes,yellows,1,жёлтый,жёлтый,46560
5cadf60419bbcd0001c74e7b,302,yes,reds,1,розовый,розовый,24809
5cadf60419bbcd0001c74e7b,303,yes,yellows,20,оранжевый,оранжевый,10556
5cadf60419bbcd0001c74e7b,304,yes,browns,1,серый,серый,5284
5cadf60419bbcd0001c74e7b,305,yes,browns,20,коричневый,коричневый,21866
5cadf60419bbcd0001c74e7b,306,yes,blues,20,синий,синий,3041
5cadf60419bbcd0001c74e7b,307,yes,reds,20,красный,красный,3325
5cbdf7e839447e00017459f3,300,yes,browns,1,светло-коричневый,светло-коричневый,8679
5cbdf7e839447e00017459f3,301,yes,yellows,1,желтый,желтый,2253
5cbdf7e839447e00017459f3,302,yes,reds,1,розовый,розовый,4987
5cbdf7e839447e00017459f3,303,yes,blues,20,синий,синий,3173
5cbdf7e839447e00017459f3,304,yes,blues,1,голубой,голубой,2676
5cbdf7e839447e00017459f3,305,yes,browns,20,коричневый,коричневый,6139
5cbdf7e839447e00017459f3,306,yes,yellows,20,оранжевый,оранжевый,2853
5cbdf7e839447e00017459f3,307,yes,reds,20,красный,красный,2016
5cd7e6f6885e0a0017273d57,300,yes,browns,1,оранжевый,оранжевый,12696.7949999962
5cd7e6f6885e0a0017273d57,301,yes,blues,20,синий,синий,3573.94000003114
5cd7e6f6885e0a0017273d57,302,yes,blues,1,голубой,голубой,3958.02000002004
5cd7e6f6885e0a0017273d57,303,yes,reds,20,красный,красный,3080.95500001218
5cd7e6f6885e0a0017273d57,304,yes,yellows,1,желтый,желтый,3485.21499999333
5cd7e6f6885e0a0017273d57,305,yes,reds,1,розовый,розовый,3940.45499991626
5cd7e6f6885e0a0017273d57,306,yes,browns,20,коричневый,коричневый,5054.84999995679
5cd7e6f6885e0a0017273d57,307,yes,yellows,20,оранджевый,оранджевый,7832.40499999374
5d1e4a3ed4b9d60001ec8f1c,300,yes,yellows,1,жёлтый,жёлтый,10601.7000000477
5d1e4a3ed4b9d60001ec8f1c,301,yes,reds,20,красный,красный,10356.0999999046
5d1e4a3ed4b9d60001ec8f1c,302,yes,blues,20,синий,синий,6985.40000009537
5d1e4a3ed4b9d60001ec8f1c,303,yes,reds,1,розовый,розовый,14298.5999999046
5d1e4a3ed4b9d60001ec8f1c,304,yes,yellows,20,оранжевый,оранжевый,24473.899999857
5d1e4a3ed4b9d60001ec8f1c,305,yes,browns,20,коричневый,коричневый,7790.79999995232
5d1e4a3ed4b9d60001ec8f1c,306,yes,blues,1,голубой,голубой,6707.09999990463
5d1e4a3ed4b9d60001ec8f1c,307,yes,browns,1,светло-коричневый,светло-коричневый,19959.0999999046
5d3587a13e11900001093ae8,300,yes,reds,1,розовый,розовый,9126.69999980926
5d3587a13e11900001093ae8,301,yes,blues,20,синий,синий,2265.60000038147
5d3587a13e11900001093ae8,302,yes,yellows,20,оранжевый,оранжевый,4538.60000038147
5d3587a13e11900001093ae8,303,yes,yellows,1,желтый,желтый,3626.80000019073
5d3587a13e11900001093ae8,304,yes,blues,1,голубой,голубой,3609.30000019073
5d3587a13e11900001093ae8,305,yes,reds,20,красный,красный,2392.10000038147
5d3587a13e11900001093ae8,306,yes,browns,20,коричневый,коричневый,3204.30000019073
5d3587a13e11900001093ae8,307,yes,browns,1,бежевый,бежевый,4663.70000076294
5d485d7e173e52001afc3136,300,no,reds,1,розовый,розовый,5539.79999999702
5d485d7e173e52001afc3136,301,no,yellows,1,желтый,желтый,4618.69999999553
5d485d7e173e52001afc3136,302,no,yellows,20,оранжевый,оранжевый,3389.60000000149
5d485d7e173e52001afc3136,303,no,blues,1,голубой,голубой,2516.30000000447
5d485d7e173e52001afc3136,304,no,reds,20,красный,красный,2161.60000000149
5d485d7e173e52001afc3136,305,no,blues,20,синий,синий,2125.5
5d485d7e173e52001afc3136,306,no,browns,1,бежевый,бежевый,4493.59999999404
5d485d7e173e52001afc3136,307,no,browns,20,коричневый,коричневый,3195.39999999851
5d6a46e06e13bf001beb924d,300,yes,yellows,20,оранжевый,оранжевый,26849
5d6a46e06e13bf001beb924d,301,yes,browns,20,коричневый,коричневый,17993.3000000119
5d6a46e06e13bf001beb924d,302,yes,browns,1,бежевый,бежевый,11662.7999999523
5d6a46e06e13bf001beb924d,303,yes,yellows,1,жёлтый,жёлтый,12932
5d6a46e06e13bf001beb924d,304,yes,blues,1,голубой,голубой,12375.1000000238
5d6a46e06e13bf001beb924d,305,yes,blues,20,синий,синий,8825.80000001192
5d6a46e06e13bf001beb924d,306,yes,reds,1,розовый,розовый,14224.1000000238
5d6a46e06e13bf001beb924d,307,yes,reds,20,алый,алый,13580.6999999881
5d7e12d416b0a00015c3681f,300,yes,reds,1,розовый,розовый,6870
5d7e12d416b0a00015c3681f,301,yes,blues,20,темно-синий,темно-синий,8109.69999998808
5d7e12d416b0a00015c3681f,302,yes,yellows,1,ярко желтый,ярко желтый,9190.5
5d7e12d416b0a00015c3681f,303,yes,browns,20,темно-коричневый,темно-коричневый,8361.39999997616
5d7e12d416b0a00015c3681f,304,yes,reds,20,ярко красный,ярко красный,8649.60000002384
5d7e12d416b0a00015c3681f,305,yes,yellows,20,оранжевый,оранжевый,7619.59999996424
5d7e12d416b0a00015c3681f,306,yes,blues,1,бледно-голубой,бледно-голубой,5418.60000002384
5d7e12d416b0a00015c3681f,307,yes,browns,1,кофейный,кофейный,10538.2000000477
5d8cf1d6243c0c001636900c,300,yes,reds,20,красный,красный,5159.20000000298
5d8cf1d6243c0c001636900c,301,yes,browns,1,бежевый,бежевый,5543.29999999702
5d8cf1d6243c0c001636900c,302,yes,reds,1,розовый,розовый,4175.90000000596
5d8cf1d6243c0c001636900c,303,yes,blues,1,голубой,голубой,4306
5d8cf1d6243c0c001636900c,304,yes,yellows,1,лимонно-желтый,лимонно-желтый,14851.5
5d8cf1d6243c0c001636900c,305,yes,blues,20,синий,синий,4020.90000000596
5d8cf1d6243c0c001636900c,306,yes,yellows,20,оранжевый,оранжевый,4860.70000000298
5d8cf1d6243c0c001636900c,307,yes,browns,20,коричневый,коричневый,4681.80000001192
5d909c555146de0019a80c41,300,yes,reds,1,Розовый,Розовый,6806.69999992847
5d909c555146de0019a80c41,301,yes,reds,20,Красный,Красный,5453.20000004768
5d909c555146de0019a80c41,302,yes,blues,1,Голубой,Голубой,5988.80000007153
5d909c555146de0019a80c41,303,yes,yellows,20,Оранжевый,Оранжевый,4852.29999995232
5d909c555146de0019a80c41,304,yes,browns,1,Бежевый,Бежевый,5536.29999995232
5d909c555146de0019a80c41,305,yes,blues,20,Синий,Синий,3475.40000009537
5d909c555146de0019a80c41,306,yes,yellows,1,Желтый,Желтый,4657.89999997616
5d909c555146de0019a80c41,307,yes,browns,20,Коричневый,Коричневый,4936
5d9ca4eff93dba0013e68c11,300,yes,reds,1,фиолетовый,фиолетовый,28002.1000000015
5d9ca4eff93dba0013e68c11,301,yes,reds,20,красный,красный,8513.80000000447
5d9ca4eff93dba0013e68c11,302,yes,blues,20,синий,синий,5060.10000000149
5d9ca4eff93dba0013e68c11,303,yes,yellows,20,оранжевый,оранжевый,8772
5d9ca4eff93dba0013e68c11,304,yes,browns,20,коричневый,коричневый,7492.80000000447
5d9ca4eff93dba0013e68c11,305,yes,yellows,1,желтый,желтый,7391.5
5d9ca4eff93dba0013e68c11,306,yes,browns,1,бежевый,бежевый,12002.299999997
5d9ca4eff93dba0013e68c11,307,yes,blues,1,голубой,голубой,11891
5db6a84280cfb2000e2ca4e3,300,yes,browns,1,бежевый,бежевый,12986.7999999821
5db6a84280cfb2000e2ca4e3,301,yes,reds,1,розовый,розовый,8316.69999998808
5db6a84280cfb2000e2ca4e3,302,yes,yellows,20,жёлтый,жёлтый,9843.69999998808
5db6a84280cfb2000e2ca4e3,303,yes,browns,20,хаки,хаки,8275.89999997616
5db6a84280cfb2000e2ca4e3,304,yes,reds,20,алый,алый,8612.30000001192
5db6a84280cfb2000e2ca4e3,305,yes,yellows,1,жёлтый,жёлтый,7758.09999999404
5db6a84280cfb2000e2ca4e3,306,yes,blues,1,голубой,голубой,7582.39999997616
5db6a84280cfb2000e2ca4e3,307,yes,blues,20,синий,синий,5860.80000001192
5dc58800370239403ec902ac,300,no,blues,20,синий,синий,7964.40000003576
5dc58800370239403ec902ac,301,no,reds,1,розовый,розовый,7214.5
5dc58800370239403ec902ac,302,no,yellows,20,оранжевый,оранжевый,6528.80000001192
5dc58800370239403ec902ac,303,no,reds,20,красный,красный,4366.5
5dc58800370239403ec902ac,304,no,browns,20,коричневый,коричневый,7592.30000001192
5dc58800370239403ec902ac,305,no,blues,1,голубой,голубой,4533.19999998808
5dc58800370239403ec902ac,306,no,yellows,1,лимонный,лимонный,16301.6999999881
5dc58800370239403ec902ac,307,no,browns,1,бежевый,бежевый,6278.69999998808
5de930a76e09cf04fffa0415,300,yes,blues,20,синий,синий,6924.20000004768
5de930a76e09cf04fffa0415,301,yes,blues,1,голубой,голубой,6141.60000002384
5de930a76e09cf04fffa0415,302,yes,reds,20,красный,красный,3799
5de930a76e09cf04fffa0415,303,yes,yellows,1,желтый,желтый,4236.90000009537
5de930a76e09cf04fffa0415,304,yes,browns,1,бурый,бурый,14708.2000000477
5de930a76e09cf04fffa0415,305,yes,reds,1,розовый,розовый,6625.70000004768
5de930a76e09cf04fffa0415,306,yes,browns,20,шоколадный,шоколадный,14085.3999999762
5de930a76e09cf04fffa0415,307,yes,yellows,20,оранжевый,оранжевый,5671.70000004768
5e1c4b52cd15fa441bc3bfce,300,yes,yellows,1,бледно-желтый,бледно-желтый,14238
5e1c4b52cd15fa441bc3bfce,301,yes,blues,1,голубой,голубой,5709
5e1c4b52cd15fa441bc3bfce,302,yes,reds,20,красный,красный,4515
5e1c4b52cd15fa441bc3bfce,303,yes,reds,1,розовый,розовый,8419
5e1c4b52cd15fa441bc3bfce,304,yes,yellows,20,оранжевый,оранжевый,8126
5e1c4b52cd15fa441bc3bfce,305,yes,blues,20,синий,синий,2841
5e1c4b52cd15fa441bc3bfce,306,yes,browns,20,коричневый,коричневый,4768
5e1c4b52cd15fa441bc3bfce,307,yes,browns,1,бежевый,бежевый,6291
5e30240d4d439d027d937a7d,300,no,yellows,1,жёлтый,жёлтый,8323.79999995232
5e30240d4d439d027d937a7d,301,no,blues,20,синий,синий,3266.09999990463
5e30240d4d439d027d937a7d,302,no,browns,1,бежевый,бежевый,4148.39999985695
5e30240d4d439d027d937a7d,303,no,yellows,20,оранжевый,оранжевый,4703.20000004768
5e30240d4d439d027d937a7d,304,no,browns,20,коричневый,коричневый,5316.5
5e30240d4d439d027d937a7d,305,no,blues,1,голубой,голубой,3175.79999995232
5e30240d4d439d027d937a7d,306,no,reds,20,красный,красный,3717.79999995232
5e30240d4d439d027d937a7d,307,no,reds,1,розовый,розовый,4145.89999985695
5e5b08677394743009ffcc8b,300,no,yellows,1,желтый,желтый,12429
5e5b08677394743009ffcc8b,301,no,reds,1,розовый,розовый,11510.099999994
5e5b08677394743009ffcc8b,302,no,browns,1,бежевый,бежевый,14354.099999994
5e5b08677394743009ffcc8b,303,no,blues,20,синий,синий,6495.09999999404
5e5b08677394743009ffcc8b,304,no,reds,20,красный,красный,2916.90000000596
5e5b08677394743009ffcc8b,305,no,browns,20,коричневый,коричневый,7083.70000001788
5e5b08677394743009ffcc8b,306,no,blues,1,голубой,голубой,2912.59999999404
5e5b08677394743009ffcc8b,307,no,yellows,20,оранжевый,оранжевый,4321.19999998808
5e84d9c7499bf00a9692a5c0,300,no,reds,20,красный алый,красный алый,31352
5e84d9c7499bf00a9692a5c0,301,no,reds,1,розовый,розовый,6964
5e84d9c7499bf00a9692a5c0,302,no,browns,1,бежевый,бежевый,7633.19999999925
5e84d9c7499bf00a9692a5c0,303,no,yellows,20,оранжевый,оранжевый,8545.30000000075
5e84d9c7499bf00a9692a5c0,304,no,browns,20,коричневый,коричневый,7157.69999999925
5e84d9c7499bf00a9692a5c0,305,no,blues,20,синий,синий,3809
5e84d9c7499bf00a9692a5c0,306,no,blues,1,голубой,голубой,5362.09999999963
5e84d9c7499bf00a9692a5c0,307,no,yellows,1,желтый,желтый,5228.5
5e852ca6fdad8f11511558a1,300,no,browns,1,бежевый,бежевый,20599.2999999523
5e852ca6fdad8f11511558a1,301,no,yellows,20,оранжевый,оранжевый,13261.7999999523
5e852ca6fdad8f11511558a1,302,no,reds,20,красный,красный,19838.2999999523
5e852ca6fdad8f11511558a1,303,no,yellows,1,жёлтый,жёлтый,18086.0999999046
5e852ca6fdad8f11511558a1,304,no,blues,1,голубой,голубой,13724.5
5e852ca6fdad8f11511558a1,305,no,reds,1,малиновый,малиновый,21499
5e852ca6fdad8f11511558a1,306,no,blues,20,синий,синий,10861.5999999046
5e852ca6fdad8f11511558a1,307,no,browns,20,коричневый,коричневый,11888.0999999046
5e96e2edb9dbc4175da87973,300,yes,blues,1,голубой,голубой,19672.5999999046
5e96e2edb9dbc4175da87973,301,yes,reds,1,розовый,розовый,13823.7999999523
5e96e2edb9dbc4175da87973,302,yes,yellows,20,оранжевый,оранжевый,10228.2000000477
5e96e2edb9dbc4175da87973,303,yes,yellows,1,желтый,желтый,8846.59999990463
5e96e2edb9dbc4175da87973,304,yes,browns,20,коричневый,коричневый,7031.59999990463
5e96e2edb9dbc4175da87973,305,yes,reds,20,красный,красный,5682.79999995232
5e96e2edb9dbc4175da87973,306,yes,browns,1,бежевый,бежевый,21971.7999999523
5e96e2edb9dbc4175da87973,307,yes,blues,20,синий,синий,3576.5
5ea3f75481a44e39aa318256,300,yes,yellows,20,оранжевый,оранжевый,5955.29999999702
5ea3f75481a44e39aa318256,301,yes,reds,1,розовый,розовый,5022.10000000894
5ea3f75481a44e39aa318256,302,yes,blues,20,синий,синий,3006.59999999404
5ea3f75481a44e39aa318256,303,yes,reds,20,красный,красный,3199.79999999702
5ea3f75481a44e39aa318256,304,yes,browns,1,светло коричневый ,светло коричневый ,15491.3000000119
5ea3f75481a44e39aa318256,305,yes,blues,1,голубой,голубой,4424.09999999404
5ea3f75481a44e39aa318256,306,yes,yellows,1,желтый,желтый,5929.90000000596
5ea3f75481a44e39aa318256,307,yes,browns,20,коричневый,коричневый,4361.59999999404
5eaf303e1b5acf09306cb758,300,yes,blues,20,синий,синий,7128.69999999995
5eaf303e1b5acf09306cb758,301,yes,browns,20,коричневый,коричневый,6980.70000000019
5eaf303e1b5acf09306cb758,302,yes,blues,1,голубой,голубой,6673.5
5eaf303e1b5acf09306cb758,303,yes,reds,1,цикламеновый,цикламеновый,10009.8999999999
5eaf303e1b5acf09306cb758,304,yes,yellows,1,желтый,желтый,5190
5eaf303e1b5acf09306cb758,305,yes,yellows,20,оранжевый,оранжевый,7799.99999999977
5eaf303e1b5acf09306cb758,306,yes,reds,20,красный,красный,7035.89999999991
5eaf303e1b5acf09306cb758,307,yes,browns,1,бежевый,бежевый,12067.9000000004
5ec4a5d2f4cd5238c6bc48db,300,yes,browns,1,бежевый,бежевый,34472.5999999046
5ec4a5d2f4cd5238c6bc48db,301,yes,blues,1,галубои,голубой,127952.799999952
5ec4a5d2f4cd5238c6bc48db,302,yes,blues,20, ультрамарин, ультрамарин,18760.3000001907
5ec4a5d2f4cd5238c6bc48db,303,yes,yellows,1, желтый, желтый,10632.2999999523
5ec4a5d2f4cd5238c6bc48db,304,yes,reds,20,красный,красный,9871.09999990463
5ec4a5d2f4cd5238c6bc48db,305,yes,browns,20, коричневый, коричневый,10761.3999998569
5ec4a5d2f4cd5238c6bc48db,306,yes,reds,1, розовый, розовый,9153.09999990463
5ec4a5d2f4cd5238c6bc48db,307,yes,yellows,20, оранжевый, оранжевый,16565.7999999523
5ecbd93498740b393711d15e,300,yes,yellows,1,желтый,желтый,3358.19999998808
5ecbd93498740b393711d15e,301,yes,browns,1,цвет кожи,цвет кожи,13408.6999999881
5ecbd93498740b393711d15e,302,yes,blues,20,синий,синий,1493.40000000596
5ecbd93498740b393711d15e,303,yes,reds,20,красный,красный,1776.90000000596
5ecbd93498740b393711d15e,304,yes,yellows,20,оранжевый,оранжевый,5223.40000000596
5ecbd93498740b393711d15e,305,yes,browns,20,коричневый,коричневый,3654.40000000596
5ecbd93498740b393711d15e,306,yes,reds,1,роговый,розовый,2263.59999999404
5ecbd93498740b393711d15e,307,yes,blues,1,голубой,голубой,1945.69999998808
5edd03f01b89f007f88c795d,300,yes,blues,1,голубой,голубой,3235
5edd03f01b89f007f88c795d,301,yes,yellows,1,желтый,желтый,2069
5edd03f01b89f007f88c795d,302,yes,reds,20,красный,красный,4591.80000000005
5edd03f01b89f007f88c795d,303,yes,yellows,20,оранжевый,оранжевый,2606.60000000009
5edd03f01b89f007f88c795d,304,yes,reds,1,розовый,розовый,5696.5
5edd03f01b89f007f88c795d,305,yes,browns,20,коричневый,коричневый,3055
5edd03f01b89f007f88c795d,306,yes,blues,20,синий,синий,1714.69999999995
5edd03f01b89f007f88c795d,307,yes,browns,1,хаки ,хаки ,2519.30000000005
5edde9874dbf2eb33593981a,300,no,yellows,1,лимонный,лимонный,4903
5edde9874dbf2eb33593981a,301,no,browns,1,бежевый,бежевый,3813.19999992847
5edde9874dbf2eb33593981a,302,no,reds,20,красный,красный,3381.79999995232
5edde9874dbf2eb33593981a,303,no,blues,20,синий,синий,1169.10000002384
5edde9874dbf2eb33593981a,304,no,reds,1,розовый,розовый,1371.29999995232
5edde9874dbf2eb33593981a,305,no,blues,1,голубой,голубой,2400.89999997616
5edde9874dbf2eb33593981a,306,no,yellows,20,оранжевый,оранжевый,1667.5
5edde9874dbf2eb33593981a,307,no,browns,20,бурый,бурый,3081.5
5eeaaae7628caa1d35b6e7c8,300,no,reds,20,красный,красный,10214.6999999285
5eeaaae7628caa1d35b6e7c8,301,no,browns,1,бешовий,бешовий,5474.20000004768
5eeaaae7628caa1d35b6e7c8,302,no,yellows,1,жолтый,жолтый,11122.2000000477
5eeaaae7628caa1d35b6e7c8,303,no,yellows,20,оранжывк,оранжывк,9113.09999990463
5eeaaae7628caa1d35b6e7c8,304,no,browns,20,коричнивый,коричнивый,47923.3999999762
5eeaaae7628caa1d35b6e7c8,305,no,reds,1,розовый,розовый,7858.39999997616
5eeaaae7628caa1d35b6e7c8,306,no,blues,20,синий,синий,11115.3000000715
5eeaaae7628caa1d35b6e7c8,307,no,blues,1,голубой,голубой,4751
5efa404c2a8ed1863aa4ad36,300,no,yellows,20,оранжевый,оранжевый,7605.70000001788
5efa404c2a8ed1863aa4ad36,301,no,blues,20,синий,синий,1856
5efa404c2a8ed1863aa4ad36,302,no,blues,1,голубой,голубой,2496.19999998808
5efa404c2a8ed1863aa4ad36,303,no,yellows,1,желтый,желтый,2724.59999999404
5efa404c2a8ed1863aa4ad36,304,no,browns,1,бежевый,бежевый,6453.5
5efa404c2a8ed1863aa4ad36,305,no,reds,1,розовый,розовый,2581.5
5efa404c2a8ed1863aa4ad36,306,no,browns,20,коричневый,коричневый,3946.59999999404
5efa404c2a8ed1863aa4ad36,307,no,reds,20,красный,красный,2634.69999998808
5f0cc31363e0816c1b0db7e1,300,no,browns,1,бежевый,бежевый,12653.6000001431
5f0cc31363e0816c1b0db7e1,301,no,blues,20,сини,сини,4035.70000004768
5f0cc31363e0816c1b0db7e1,302,no,yellows,20,оранжевый,оранжевый,6307.59999990463
5f0cc31363e0816c1b0db7e1,303,no,reds,1,розовый,розовый,6564.19999980927
5f0cc31363e0816c1b0db7e1,304,no,yellows,1,желтый,желтый,7383.79999995232
5f0cc31363e0816c1b0db7e1,305,no,browns,20,коричневый,коричневый,8045
5f0cc31363e0816c1b0db7e1,306,no,reds,20,красный,красный,4415.79999995232
5f0cc31363e0816c1b0db7e1,307,no,blues,1,голубой,голубой,11120.5
5f1393a3d005e83a02b5f0fa,300,yes,browns,1,бежевый,бежевый,5263.20000004768
5f1393a3d005e83a02b5f0fa,301,yes,browns,20,коричневый,коричневый,2923.39999985695
5f1393a3d005e83a02b5f0fa,302,yes,blues,20,синий,синий,6232
5f1393a3d005e83a02b5f0fa,303,yes,blues,1,голубой,голубой,2415.90000009537
5f1393a3d005e83a02b5f0fa,304,yes,yellows,20,рыжий,рыжий,4292.79999995232
5f1393a3d005e83a02b5f0fa,305,yes,reds,20,красно оранжеввй,красно оранжеввй,7341.40000009537
5f1393a3d005e83a02b5f0fa,306,yes,yellows,1,желтый,желтый,4063.70000004768
5f1393a3d005e83a02b5f0fa,307,yes,reds,1,розовый,розовый,2925.40000009537
5f404cabcec1d7193e474d33,300,no,yellows,1,желтый,желтый,10372
5f404cabcec1d7193e474d33,301,no,browns,1,коричневый,коричневый,15540
5f404cabcec1d7193e474d33,302,no,yellows,20,оранжевый,оранжевый,6572
5f404cabcec1d7193e474d33,303,no,blues,20,синий,синий,1860
5f404cabcec1d7193e474d33,304,no,reds,1,розовый,розовый,4181
5f404cabcec1d7193e474d33,305,no,browns,20,коричневый,коричневый,3468
5f404cabcec1d7193e474d33,306,no,blues,1,голубой,голубой,2355
5f404cabcec1d7193e474d33,307,no,reds,20,красный,красный,3145
5f4ff7dc984fc8144644dc17,300,yes,reds,1,розовый,розовый,20647.7000000477
5f4ff7dc984fc8144644dc17,301,yes,reds,20,красный,красный,3341.89999997616
5f4ff7dc984fc8144644dc17,302,yes,yellows,20,оранжевый,оранжевый,5220.5
5f4ff7dc984fc8144644dc17,303,yes,browns,20,коричневый,коричневый,3715.19999998808
5f4ff7dc984fc8144644dc17,304,yes,blues,1,голубой,голубой,3177.30000001192
5f4ff7dc984fc8144644dc17,305,yes,browns,1,бежевый,бежевый,3205.19999998808
5f4ff7dc984fc8144644dc17,306,yes,yellows,1,желтый,желтый,2741.29999995232
5f4ff7dc984fc8144644dc17,307,yes,blues,20,синий,синий,1804.40000003576
5f529a01b9922d57f46fcf89,300,no,blues,1,небесно-голубой,небесно-голубой,10621.2
5f529a01b9922d57f46fcf89,301,no,browns,20,"тёмно-коричневый, тёмная охра","тёмно-коричневый, тёмная охра",9774.89999999991
5f529a01b9922d57f46fcf89,302,no,yellows,20,"оранжевый, охра","оранжевый, охра",9870.80000000005
5f529a01b9922d57f46fcf89,303,no,reds,1,"розовый, фуксия","розовый, фуксия",30142.5
5f529a01b9922d57f46fcf89,304,no,browns,1,бежевый,бежевый,4571.5
5f529a01b9922d57f46fcf89,305,no,blues,20,синий,синий,2150.19999999995
5f529a01b9922d57f46fcf89,306,no,yellows,1,ярко-жёлтый,ярко-жёлтый,4559.70000000019
5f529a01b9922d57f46fcf89,307,no,reds,20,красный,красный,4670.29999999981
5f64d5a98860bd0548282415,300,no,yellows,20,оранжевий,оранжевий,9493.89999999991
5f64d5a98860bd0548282415,301,no,browns,1,бежевый,бежевый,4278.69999999995
5f64d5a98860bd0548282415,302,no,browns,20,коричневый,коричневый,3290.40000000002
5f64d5a98860bd0548282415,303,no,reds,20,красный,красный,1692.69999999995
5f64d5a98860bd0548282415,304,no,blues,1,голубой,голубой,2327.70000000007
5f64d5a98860bd0548282415,305,no,yellows,1,желтый,желтый,2446.80000000005
5f64d5a98860bd0548282415,306,no,reds,1,розовый,розовый,2158.40000000002
5f64d5a98860bd0548282415,307,no,blues,20,синий,синий,1830
5f75c3ec4779992567247f08,300,yes,browns,1,горчичный,горчичный,47252.7999999523
5f75c3ec4779992567247f08,301,yes,blues,1,голубой,голубой,26454
5f75c3ec4779992567247f08,302,yes,yellows,20,оранжевый,оранжевый,31630.5999999046
5f75c3ec4779992567247f08,303,yes,reds,20,красный,красный,30147.2000000477
5f75c3ec4779992567247f08,304,yes,yellows,1,жёлтый,жёлтый,32167.5
5f75c3ec4779992567247f08,305,yes,reds,1,розовый,розовый,21427.6999998093
5f75c3ec4779992567247f08,306,yes,browns,20,коричневый,коричневый,32660.1999998093
5f75c3ec4779992567247f08,307,yes,blues,20,синий,синий,18692.399999857
5f8228f40afba53534e6f583,300,no,reds,1,розовый,розовый,6210.5
5f8228f40afba53534e6f583,301,no,yellows,20,оранжевый,оранжевый,3019
5f8228f40afba53534e6f583,302,no,browns,1,кремовый,кремовый,9919.09999990463
5f8228f40afba53534e6f583,303,no,blues,1,голубой,голубой,3321.70000004768
5f8228f40afba53534e6f583,304,no,blues,20,синий,синий,1350.20000004768
5f8228f40afba53534e6f583,305,no,browns,20,коричневый,коричневый,3106.39999997616
5f8228f40afba53534e6f583,306,no,reds,20,красный,красный,1909.29999995232
5f8228f40afba53534e6f583,307,no,yellows,1,желтый,желтый,2688.60000002384
5f878ddde9acf51ccdbebeff,300,yes,yellows,1,желтый ,желтый ,13455.7999999523
5f878ddde9acf51ccdbebeff,301,yes,blues,1,небесный ,небесный ,23607
5f878ddde9acf51ccdbebeff,302,yes,blues,20,небесный,небесный,20281
5f878ddde9acf51ccdbebeff,303,yes,browns,20,коричневый,коричневый,19852.5
5f878ddde9acf51ccdbebeff,304,yes,reds,1,розовый,розовый,17452.5999999642
5f878ddde9acf51ccdbebeff,305,yes,yellows,20,оранжевый,оранжевый,17823.9000000358
5f878ddde9acf51ccdbebeff,306,yes,reds,20,красный,красный,9410.09999996424
5f878ddde9acf51ccdbebeff,307,yes,browns,1,телесный,телесный,52078.1999999881
5fa7e86cbc1fcb592aa1ea7b,300,no,reds,1,ярко-розовый ,ярко-розовый ,27168
5fa7e86cbc1fcb592aa1ea7b,301,no,yellows,1,солнечный,солнечный,7751.30000001192
5fa7e86cbc1fcb592aa1ea7b,302,no,browns,20,шоколадный ,шоколадный ,9434.90000003576
5fa7e86cbc1fcb592aa1ea7b,303,no,blues,20,синий ,синий ,4777.39999997616
5fa7e86cbc1fcb592aa1ea7b,304,no,reds,20,красный ,красный ,2554.60000002384
5fa7e86cbc1fcb592aa1ea7b,305,no,yellows,20,грязно- оранжевый,грязно- оранжевый,6971.39999997616
5fa7e86cbc1fcb592aa1ea7b,306,no,blues,1,голубой,голубой,3217.89999997616
5fa7e86cbc1fcb592aa1ea7b,307,no,browns,1,тусклый беж,тусклый беж,8494.39999997616
5fd4c08a21ae0225a62a0c6d,300,no,browns,1,бежевый,бежевый,12085
5fd4c08a21ae0225a62a0c6d,301,no,yellows,1,желтый,желтый,4914
5fd4c08a21ae0225a62a0c6d,302,no,yellows,20,оранжевый,оранжевый,5158
5fd4c08a21ae0225a62a0c6d,303,no,reds,20,малиновый,малиновый,6454
5fd4c08a21ae0225a62a0c6d,304,no,browns,20,коричневый,коричневый,4999
5fd4c08a21ae0225a62a0c6d,305,no,reds,1,розовый,розовый,4178
5fd4c08a21ae0225a62a0c6d,306,no,blues,1,голубой,голубой,3721
5fd4c08a21ae0225a62a0c6d,307,no,blues,20,синий,синий,2528
5fe7585fbbdf7f5ae52ea841,300,no,blues,20,Синий,Синий,15222
5fe7585fbbdf7f5ae52ea841,301,no,reds,20,Красный,Красный,41151
5fe7585fbbdf7f5ae52ea841,302,no,browns,20,коричневый,коричневый,19859
5fe7585fbbdf7f5ae52ea841,303,no,yellows,20,Оранжевый,Оранжевый,12226
5fe7585fbbdf7f5ae52ea841,304,no,browns,1,Бежевы,Бежевы,16074
5fe7585fbbdf7f5ae52ea841,305,no,reds,1,Розовый,Розовый,11337
5fe7585fbbdf7f5ae52ea841,306,no,blues,1,Голубой,Голубой,11613
5fe7585fbbdf7f5ae52ea841,307,no,yellows,1,Желтый,Желтый,17944
5ff0e2885161774a78cce560,300,no,yellows,1,жолтый,жолтый,9776.10000002384
5ff0e2885161774a78cce560,301,no,reds,1,розовый ,розовый ,4617.5
5ff0e2885161774a78cce560,302,no,blues,1,синий,синий,2328.60000002384
5ff0e2885161774a78cce560,303,no,blues,20,голубой,голубой,2441.80000007153
5ff0e2885161774a78cce560,304,no,reds,20,красный,красный,3781.20000004768
5ff0e2885161774a78cce560,305,no,browns,1,светло-коричневый,светло-коричневый,6298
5ff0e2885161774a78cce560,306,no,browns,20,шоколадный,шоколадный,6849.69999992847
5ff0e2885161774a78cce560,307,no,yellows,20,оранжевый ,оранжевый ,6278.70000004768
5fff85787b28cb0d6d77cbc3,300,no,yellows,20,оранжевый,оранжевый,12995.5
5fff85787b28cb0d6d77cbc3,301,no,yellows,1,жёлтый,жёлтый,13967.5
5fff85787b28cb0d6d77cbc3,302,no,reds,1,розовый,розовый,9853.90000000002
5fff85787b28cb0d6d77cbc3,303,no,browns,20,коричневый,коричневый,13133.6
5fff85787b28cb0d6d77cbc3,304,no,blues,20,синий,синий,8917.30000000005
5fff85787b28cb0d6d77cbc3,305,no,blues,1,голубой,голубой,9765.39999999991
5fff85787b28cb0d6d77cbc3,306,no,reds,20,бордовый,бордовый,12482.7000000001
5fff85787b28cb0d6d77cbc3,307,no,browns,1,телесный,телесный,17906.8
601c1c66f30e1269762f09c8,300,no,browns,1,бежевый,бежевый,8904.29999995232
601c1c66f30e1269762f09c8,301,no,reds,1,розовый,розовый,4031.39999985695
601c1c66f30e1269762f09c8,302,no,blues,20,синий,синий,2727.80000019073
601c1c66f30e1269762f09c8,303,no,yellows,1,желтый,желтый,4108.39999985695
601c1c66f30e1269762f09c8,304,no,blues,1,голубой,голубой,3388.5
601c1c66f30e1269762f09c8,305,no,browns,20,темно-коричневый,темно-коричневый,10498.4000000954
601c1c66f30e1269762f09c8,306,no,reds,20,красный,красный,2044.89999985695
601c1c66f30e1269762f09c8,307,no,yellows,20,оранжевый,оранжевый,3811.40000009537
604b528b95d6d998726f0bd9,300,yes,browns,20,коричневый,коричневый,15814.700000003
604b528b95d6d998726f0bd9,301,yes,browns,1,бежевый,бежевый,17724.299999997
604b528b95d6d998726f0bd9,302,yes,yellows,20,оранжевый,оранжевый,11424.299999997
604b528b95d6d998726f0bd9,303,yes,blues,20,синий,синий,3546
604b528b95d6d998726f0bd9,304,yes,yellows,1,желтый,желтый,10896.3000000119
604b528b95d6d998726f0bd9,305,yes,reds,20,красный,красный,4070.29999999702
604b528b95d6d998726f0bd9,306,yes,reds,1,розовый,розовый,16417.6000000089
604b528b95d6d998726f0bd9,307,yes,blues,1,голубой,голубой,15473.900000006
607ed750ad800928b1861317,300,no,blues,1,голубой,голубой,3610
607ed750ad800928b1861317,301,no,reds,20,красный,красный,2353
607ed750ad800928b1861317,302,no,browns,1,песочный,песочный,5419
607ed750ad800928b1861317,303,no,blues,20,синий,синий,2096
607ed750ad800928b1861317,304,no,browns,20,коричневый,коричневый,3867
607ed750ad800928b1861317,305,no,yellows,1,желтый,желтый,2078
607ed750ad800928b1861317,306,no,yellows,20,оранжевый,оранжевый,3267
607ed750ad800928b1861317,307,no,reds,1,розовый,розовый,2134
60852b725e29144f217e58ef,300,no,blues,1,голубой,голубой,18528
60852b725e29144f217e58ef,301,no,yellows,1,жёлтый,жёлтый,18972.4000000954
60852b725e29144f217e58ef,302,no,reds,20,красный,красный,13060.1000001431
60852b725e29144f217e58ef,303,no,reds,1,розовый,розовый,23045.399999857
60852b725e29144f217e58ef,304,no,browns,1,светло коричневый,светло коричневый,24094.7999999523
60852b725e29144f217e58ef,305,no,yellows,20,оранжевый,оранжевый,16867.7999999523
60852b725e29144f217e58ef,306,no,browns,20,коричневый,коричневый,24667
60852b725e29144f217e58ef,307,no,blues,20,синий,синий,13610
6086f645a0aa19633021daa5,300,yes,yellows,1,желтый охра,желтый охра,20264
6086f645a0aa19633021daa5,301,yes,reds,1,сиреневый,сиреневый,9485
6086f645a0aa19633021daa5,302,yes,blues,1,голубой,голубой,14974
6086f645a0aa19633021daa5,303,yes,yellows,20,оранжевый,оранжевый,8303
6086f645a0aa19633021daa5,304,yes,reds,20,красный,красный,8316
6086f645a0aa19633021daa5,305,yes,blues,20,синий,синий,5933
6086f645a0aa19633021daa5,306,yes,browns,1,бежевый,бежевый,7073
6086f645a0aa19633021daa5,307,yes,browns,20,коричневый,коричневый,4585
609b0969f071a72e09556bf9,300,yes,yellows,20,оранжевый,оранжевый,9673.5
609b0969f071a72e09556bf9,301,yes,reds,20,красный,красный,3524.30000019073
609b0969f071a72e09556bf9,302,yes,browns,20,коричневый,коричневый,3786.89999985695
609b0969f071a72e09556bf9,303,yes,blues,1,голубой,голубой,4862.59999990463
609b0969f071a72e09556bf9,304,yes,reds,1,сиреневый,сиреневый,3635.40000009537
609b0969f071a72e09556bf9,305,yes,yellows,1,желтый,желтый,4784.10000014305
609b0969f071a72e09556bf9,306,yes,browns,1,кофейный,кофейный,11350.6000001431
609b0969f071a72e09556bf9,307,yes,blues,20,синий,синий,2503.70000004768
609fae20b7a613b65286bd02,300,no,blues,20,Синий,Синий,12315.9000000954
609fae20b7a613b65286bd02,301,no,reds,20,Красный,Красный,2926
609fae20b7a613b65286bd02,302,no,browns,1,Бежевый,Бежевый,13820.5
609fae20b7a613b65286bd02,303,no,browns,20,Коричневый,Коричневый,28255.8000000715
609fae20b7a613b65286bd02,304,no,reds,1,Розовый,Розовый,10684.5
609fae20b7a613b65286bd02,305,no,yellows,1,Жёлтый,Жёлтый,12486.0999999046
609fae20b7a613b65286bd02,306,no,yellows,20,Оранжевый,Оранжевый,5000.39999997616
609fae20b7a613b65286bd02,307,no,blues,1,Голубой,Голубой,12515.5
60a0870b5f1068f0bf81d0ea,300,yes,yellows,1,желтый,желтый,5163
60a0870b5f1068f0bf81d0ea,301,yes,browns,20,коричневый,коричневый,2403.09999999404
60a0870b5f1068f0bf81d0ea,302,yes,blues,20,синий,синий,1643.90000000596
60a0870b5f1068f0bf81d0ea,303,yes,reds,20,красный,красный,1703.19999998808
60a0870b5f1068f0bf81d0ea,304,yes,yellows,20,оранжевый,оранжевый,2235.19999998808
60a0870b5f1068f0bf81d0ea,305,yes,reds,1,розовый,розовый,2002.09999999404
60a0870b5f1068f0bf81d0ea,306,yes,blues,1,голубой,голубой,3577.09999999404
60a0870b5f1068f0bf81d0ea,307,yes,browns,1,бежевый,бежевый,3216.70000001788
60a50c11974548a422b187e0,300,yes,yellows,1,желтый,желтый,5636.40000000037
60a50c11974548a422b187e0,301,yes,blues,1,голубой,голубой,4390.30000000028
60a50c11974548a422b187e0,302,yes,blues,20,синий,синий,3582.89999999991
60a50c11974548a422b187e0,303,yes,reds,1,розовый,розовый,4444.20000000019
60a50c11974548a422b187e0,304,yes,browns,20,коричневый,коричневый,5439.89999999991
60a50c11974548a422b187e0,305,yes,yellows,20,оранжевый,оранжевый,7186.60000000009
60a50c11974548a422b187e0,306,yes,reds,20,красный,красный,4237.20000000019
60a50c11974548a422b187e0,307,yes,browns,1,бежевый,бежевый,5289.79999999981
60a5181a8b36c8764b25abe9,300,no,yellows,20,оранжевый,оранжевый,32890
60a5181a8b36c8764b25abe9,301,no,yellows,1,жёлтый,жёлтый,13729.2999999523
60a5181a8b36c8764b25abe9,302,no,reds,20,красный,красный,13050
60a5181a8b36c8764b25abe9,303,no,browns,20,коричневый,коричневый,9446
60a5181a8b36c8764b25abe9,304,no,reds,1,розовый,розовый,9831.60000002384
60a5181a8b36c8764b25abe9,305,no,browns,1,светло-коричневый,светло-коричневый,39607.1000000238
60a5181a8b36c8764b25abe9,306,no,blues,20,синий,синий,5643.60000002384
60a5181a8b36c8764b25abe9,307,no,blues,1,голубой,голубой,10855
60afdaabe89738689e63d07b,300,yes,reds,1,розовый,розовый,18963.5
60afdaabe89738689e63d07b,301,yes,yellows,20,оранжевый,оранжевый,18681.8999999762
60afdaabe89738689e63d07b,302,yes,blues,20,синий,синий,15989.7999999523
60afdaabe89738689e63d07b,303,yes,browns,20,коричневый,коричневый,10853.9000000954
60afdaabe89738689e63d07b,304,yes,browns,1,бежевый,бежевый,13247
60afdaabe89738689e63d07b,305,yes,yellows,1,желтый,желтый,11489.3000000715
60afdaabe89738689e63d07b,306,yes,reds,20,красный,красный,10314.7999999523
60afdaabe89738689e63d07b,307,yes,blues,1,голубой,голубой,26139.3999999762
60b6959125a368bf9583b8e2,300,no,blues,1,светло синий,светло-синий,40160.6000000089
60b6959125a368bf9583b8e2,301,no,browns,1, бежевый, бежевый,18170.3999999911
60b6959125a368bf9583b8e2,302,no,yellows,20,апельсин,апельсин,55863.700000003
60b6959125a368bf9583b8e2,303,no,reds,20,красный,красный,15055.6999999881
60b6959125a368bf9583b8e2,304,no,yellows,1,желтый,желтый,12506.400000006
60b6959125a368bf9583b8e2,305,no,blues,20,синий,синий,26293.5
60b6959125a368bf9583b8e2,306,no,browns,20,коричневый,коричневый,10255.3999999911
60b6959125a368bf9583b8e2,307,no,reds,1,розовый,розовый,8419
60ba6740a76fadb32842870e,300,yes,blues,1,голубой,голубой,6913.89999999851
60ba6740a76fadb32842870e,301,yes,yellows,20,ярко оранжевый ,ярко оранжевый ,22176
60ba6740a76fadb32842870e,302,yes,browns,1,телесный ,телесный ,9182.20000000298
60ba6740a76fadb32842870e,303,yes,reds,20,ярко красный ,ярко красный ,6364.20000000298
60ba6740a76fadb32842870e,304,yes,browns,20,темно коричневый ,темно коричневый ,10818.3000000045
60ba6740a76fadb32842870e,305,yes,blues,20,синий,синий,4913.40000000596
60ba6740a76fadb32842870e,306,yes,reds,1,розовый,розовый,4092.39999999851
60ba6740a76fadb32842870e,307,yes,yellows,1,салатово желтый,салатово желтый,17993.200000003
60c7cdb0a47039783bd98201,300,yes,browns,1,бежево-розовый,бежево-розовый,18462.599999994
60c7cdb0a47039783bd98201,301,yes,reds,20,красный,красный,4682.90000000596
60c7cdb0a47039783bd98201,302,yes,blues,20,синий,синий,6625.09999999404
60c7cdb0a47039783bd98201,303,yes,browns,20,коричневый,коричневый,3606.19999998808
60c7cdb0a47039783bd98201,304,yes,yellows,20,оранжевый,оранжевый,3601.09999999404
60c7cdb0a47039783bd98201,305,yes,reds,1,розовый,розовый,5089.69999998808
60c7cdb0a47039783bd98201,306,yes,blues,1,голубой,голубой,2600.90000000596
60c7cdb0a47039783bd98201,307,yes,yellows,1,желтый,желтый,2730.59999999404
60cef814eb70da24cbfd466a,300,no,reds,1,розовый,розовый,9264.10000002384
60cef814eb70da24cbfd466a,301,no,yellows,20,оранжевый,оранжевый,10208.8999999762
60cef814eb70da24cbfd466a,302,no,reds,20,красный,красный,49753.5
60cef814eb70da24cbfd466a,303,no,browns,20,коричневый,коричневый,10775.7000000477
60cef814eb70da24cbfd466a,304,no,blues,1,голубой,голубой,8564.79999995232
60cef814eb70da24cbfd466a,305,no,yellows,1,светло-желтый,светло-желтый,20448
60cef814eb70da24cbfd466a,306,no,browns,1,светло-коричневый,светло-коричневый,23085.3999999762
60cef814eb70da24cbfd466a,307,no,blues,20,синий,синий,4246
60d0cf1e3695c6c547ca8058,300,no,yellows,20,оранжевый,оранжевый,39636.7000000477
60d0cf1e3695c6c547ca8058,301,no,yellows,1,желтый,желтый,10120
60d0cf1e3695c6c547ca8058,302,no,browns,20,коричневый,коричневый,17526
60d0cf1e3695c6c547ca8058,303,no,reds,20,красный,красный,11096.7999999523
60d0cf1e3695c6c547ca8058,304,no,reds,1,розовый,розовый,8419
60d0cf1e3695c6c547ca8058,305,no,blues,1,голубой,голубой,19108.2000000477
60d0cf1e3695c6c547ca8058,306,no,browns,1,бежевый,бежевый,25816.5999999046
60d0cf1e3695c6c547ca8058,307,no,blues,20,синий,синий,13024
60d4de3b13db311590fc7030,300,no,yellows,1,желтый,желтый,6919.59999999404
60d4de3b13db311590fc7030,301,no,reds,20,красный,красный,6451.90000000596
60d4de3b13db311590fc7030,302,no,reds,1,розовый,розовый,6621.79999999702
60d4de3b13db311590fc7030,303,no,blues,1,голубой,голубой,6365.29999999702
60d4de3b13db311590fc7030,304,no,browns,1,бежевый,бежевый,7142
60d4de3b13db311590fc7030,305,no,blues,20,синий,синий,5001.59999999404
60d4de3b13db311590fc7030,306,no,yellows,20,оранжевый,оранжевый,10136.700000003
60d4de3b13db311590fc7030,307,no,browns,20,коричневый,коричневый,7161
60db86f6ae7dad784f8a1672,300,no,reds,1,розовый,розовый,9304
60db86f6ae7dad784f8a1672,301,no,yellows,20,оранжевый,оранжевый,12208.599999994
60db86f6ae7dad784f8a1672,302,no,browns,1,бежевый,бежевый,10546.900000006
60db86f6ae7dad784f8a1672,303,no,reds,20,красный,красный,8704.40000000596
60db86f6ae7dad784f8a1672,304,no,browns,20,коричневый,коричневый,17769.599999994
60db86f6ae7dad784f8a1672,305,no,blues,1,голубой,голубой,5823.59999999404
60db86f6ae7dad784f8a1672,306,no,yellows,1,желтый,желтый,7807.09999999404
60db86f6ae7dad784f8a1672,307,no,blues,20,синий,синий,2471.70000001788
60e20d08170829daa9751ab2,300,no,blues,1,голубой,голубой,17670.200000003
60e20d08170829daa9751ab2,301,no,browns,20,коричневый,коричневый,15967.700000003
60e20d08170829daa9751ab2,302,no,reds,20,красный,красный,7724.5
60e20d08170829daa9751ab2,303,no,yellows,20,оранжевый,оранжевый,14959
60e20d08170829daa9751ab2,304,no,browns,1,бежевый,бежевый,10360.900000006
60e20d08170829daa9751ab2,305,no,blues,20,синий,синий,4136.09999999404
60e20d08170829daa9751ab2,306,no,yellows,1,желтый,желтый,9788.30000001192
60e20d08170829daa9751ab2,307,no,reds,1,розовфй,розовый,9027.39999999106
60e7db20a383c138681c72a2,300,yes,blues,1,светло голубой,светло-голубой,8980.80000019073
60e7db20a383c138681c72a2,301,yes,reds,1,светло розовый с малиновым оттенком,светло розовый с малиновым оттенком,22346.899999857
60e7db20a383c138681c72a2,302,yes,yellows,1,ярко желтый,ярко желтый,5293.10000014305
60e7db20a383c138681c72a2,303,yes,yellows,20,глубокий оранжевый,глубокий оранжевый,10676.5999999046
60e7db20a383c138681c72a2,304,yes,blues,20,синий,синий,3044.5
60e7db20a383c138681c72a2,305,yes,reds,20,красный,красный,2887.79999995232
60e7db20a383c138681c72a2,306,yes,browns,20,коричневый,коричневый,5319.70000004768
60e7db20a383c138681c72a2,307,yes,browns,1,бежевый,бежевый,5921.10000014305
60efd012b1d52c005f74b0b0,300,no,browns,1,бежевый,бежевый,10440
60efd012b1d52c005f74b0b0,301,no,yellows,1,желтый,желтый,2784
60efd012b1d52c005f74b0b0,302,no,browns,20,коричневый,коричневый,3058
60efd012b1d52c005f74b0b0,303,no,blues,20,синий,синий,2248
60efd012b1d52c005f74b0b0,304,no,yellows,20,оранжевый,оранжевый,3839
60efd012b1d52c005f74b0b0,305,no,blues,1,голубой,голубой,3135
60efd012b1d52c005f74b0b0,306,no,reds,20,красный,красный,2966
60efd012b1d52c005f74b0b0,307,no,reds,1,розовый,розовый,2908
60f092a73037a6c7c290c5bd,300,yes,yellows,20,оранжевый,оранжевый,45971.900000006
60f092a73037a6c7c290c5bd,301,yes,browns,20,коричневый,коричневый,48027
60f092a73037a6c7c290c5bd,302,yes,yellows,1,желтый,желтый,31545.700000003
60f092a73037a6c7c290c5bd,303,yes,reds,20,красный,красный,22821.6000000089
60f092a73037a6c7c290c5bd,304,yes,browns,1,бежевый,бежевый,24019.200000003
60f092a73037a6c7c290c5bd,305,yes,blues,1,голубой,голубой,30293.299999997
60f092a73037a6c7c290c5bd,306,yes,blues,20,синий,синий,28590.200000003
60f092a73037a6c7c290c5bd,307,yes,reds,1,розовый,розовый,41626.700000003
60f458cc280b53413ed4556d,300,no,browns,1,бежевый,бежевый,9384
60f458cc280b53413ed4556d,301,no,blues,1,светло голубой,светло-голубой,7215.40000000002
60f458cc280b53413ed4556d,302,no,reds,20,ярко красный,ярко красный,5359.30000000005
60f458cc280b53413ed4556d,303,no,reds,1,розовый,розовый,4367.20000000007
60f458cc280b53413ed4556d,304,no,blues,20,ярко-синий,ярко-синий,33741.6000000001
60f458cc280b53413ed4556d,305,no,yellows,1,лимонный,лимонный,7071.69999999995
60f458cc280b53413ed4556d,306,no,yellows,20,оранжевый,оранжевый,4990.89999999991
60f458cc280b53413ed4556d,307,no,browns,20,коричневый,коричневый,6199.09999999998
60fde2dcd1deb9c16988f4ea,300,no,blues,20,синий,синий,13218.5
60fde2dcd1deb9c16988f4ea,301,no,reds,1,розовый,розовый,12318.6999998093
60fde2dcd1deb9c16988f4ea,302,no,browns,20,коричневый,коричневый,19260.8000001907
60fde2dcd1deb9c16988f4ea,303,no,browns,1,бежевый,бежевый,11845.9000005722
60fde2dcd1deb9c16988f4ea,304,no,yellows,20,оранжевый,оранжевый,14676.1000003815
60fde2dcd1deb9c16988f4ea,305,no,blues,1,голубое,голубое,15788.9000005722
60fde2dcd1deb9c16988f4ea,306,no,reds,20,красный,красный,5707.60000038147
60fde2dcd1deb9c16988f4ea,307,no,yellows,1,желтый,желтый,7080.5
60fe024afe23e696f9a02873,300,no,browns,1,бежавый,бежавый,8336.20000004768
60fe024afe23e696f9a02873,301,no,blues,20,синий,синий,3554.39999997616
60fe024afe23e696f9a02873,302,no,reds,20,крысный,красный,2459.19999998808
60fe024afe23e696f9a02873,303,no,blues,1,голубой,голубой,2795.09999996424
60fe024afe23e696f9a02873,304,no,yellows,1,желтый,желтый,3356
60fe024afe23e696f9a02873,305,no,browns,20,коричневый,коричневый,5234.80000001192
60fe024afe23e696f9a02873,306,no,yellows,20,оранживый,оранживый,6777.89999997616
60fe024afe23e696f9a02873,307,no,reds,1,розовый,розовый,2737.5
60ffd560f4f85a1f212d5ab8,300,no,yellows,20,оранжевый,оранжевый,5003.24500002898
60ffd560f4f85a1f212d5ab8,301,no,blues,1,голубой,голубой,2678.12499997672
60ffd560f4f85a1f212d5ab8,302,no,yellows,1,желтый,желтый,2257.40000000224
60ffd560f4f85a1f212d5ab8,303,no,blues,20,синий,синий,4085.1000000257
60ffd560f4f85a1f212d5ab8,304,no,browns,20,коричневый,коричневый,2616.85999995098
60ffd560f4f85a1f212d5ab8,305,no,reds,1,розовый,розовый,2441.44000008237
60ffd560f4f85a1f212d5ab8,306,no,browns,1,бежевый,бежевый,5729.93000003044
60ffd560f4f85a1f212d5ab8,307,no,reds,20,красный,красный,1895.61000000685
610155724c386e21e3c62449,300,no,browns,20,коричневый,коричневый,26403.2000000179
610155724c386e21e3c62449,301,no,yellows,1,жёлтый,жёлтый,19114.400000006
610155724c386e21e3c62449,302,no,browns,1,светло коричневый,светло-коричневый,33501.400000006
610155724c386e21e3c62449,303,no,blues,1,голубой,голубой,11806.5
610155724c386e21e3c62449,304,no,yellows,20,оранжевый,оранжевый,21137.7999999821
610155724c386e21e3c62449,305,no,reds,20,красный,красный,9238.70000001788
610155724c386e21e3c62449,306,no,blues,20,синий,синий,6211.80000001192
610155724c386e21e3c62449,307,no,reds,1,розовый,розовый,7835.89999997616
61058c2ba92529ec164257fe,300,no,yellows,1,желтый,желтый,12396.400000006
61058c2ba92529ec164257fe,301,no,browns,1,бежевый,бежевый,12107.5
61058c2ba92529ec164257fe,302,no,blues,20,синий,синий,6579.19999998808
61058c2ba92529ec164257fe,303,no,reds,20,красный,красный,11801.6000000238
61058c2ba92529ec164257fe,304,no,yellows,20,ораню,ораню,10206.3000000119
61058c2ba92529ec164257fe,305,no,browns,20,коричневый,коричневый,15306.7999999821
61058c2ba92529ec164257fe,306,no,reds,1,розовый,розовый,13077.1999999881
61058c2ba92529ec164257fe,307,no,blues,1,голубой,голубой,8276.79999998212
61070764aa95fd53ab16bc34,300,yes,yellows,1,ярко-желтый,ярко-желтый,9620
61070764aa95fd53ab16bc34,301,yes,blues,20,индиго,индиго,29537
61070764aa95fd53ab16bc34,302,yes,reds,1,розовый,розовый,6081
61070764aa95fd53ab16bc34,303,yes,blues,1,голубой,голубой,4344
61070764aa95fd53ab16bc34,304,yes,yellows,20,оранжевый,оранжевый,4342
61070764aa95fd53ab16bc34,305,yes,browns,1,бежевый,бежевый,7043
61070764aa95fd53ab16bc34,306,yes,reds,20,красный,красный,5399
61070764aa95fd53ab16bc34,307,yes,browns,20,темно-коричневый,темно-коричневый,20365
610bce3ab86d818fca5066a3,300,yes,browns,20,коричневый,коричневый,7887.09999999963
610bce3ab86d818fca5066a3,301,yes,blues,1,голубой,голубой,5578
610bce3ab86d818fca5066a3,302,yes,reds,1,розовый,розовый,5824.10000000009
610bce3ab86d818fca5066a3,303,yes,reds,20,красный,красный,3825
610bce3ab86d818fca5066a3,304,yes,yellows,20,оранжевый,оранжевый,10613.1000000001
610bce3ab86d818fca5066a3,305,yes,browns,1,безжевый,безжевый,11568
610bce3ab86d818fca5066a3,306,yes,yellows,1,желтый,желтый,5053.89999999991
610bce3ab86d818fca5066a3,307,yes,blues,20,синий,синий,3237.5
6113978215a6811ec98b7416,300,yes,blues,20,синий,синий,16902.6999999285
6113978215a6811ec98b7416,301,yes,yellows,20,оранжевый,оранжевый,26859.5
6113978215a6811ec98b7416,302,yes,browns,20,коричневый,коричневый,35974.9000000954
6113978215a6811ec98b7416,303,yes,reds,1,розовый,розовый,14064.2000000477
6113978215a6811ec98b7416,304,yes,reds,20,красный,красный,11311.3999999762
6113978215a6811ec98b7416,305,yes,yellows,1,желтый,желтый,14718.8999999762
6113978215a6811ec98b7416,306,yes,browns,1,бежевый,бежевый,81632.7999999523
6113978215a6811ec98b7416,307,yes,blues,1,голубой,голубой,13397.6000000238
611696d636ea325025968f22,300,no,yellows,1,желтый,желтый,6233
611696d636ea325025968f22,301,no,blues,20,синий,синий,1861.69999980926
611696d636ea325025968f22,302,no,yellows,20,оранжевый,оранжевый,4333.40000009537
611696d636ea325025968f22,303,no,blues,1,голубой,голубой,3449.5
611696d636ea325025968f22,304,no,reds,20,красный,красный,2980.59999990463
611696d636ea325025968f22,305,no,reds,1,фиолетовый,фиолетовый,4006.19999980927
611696d636ea325025968f22,306,no,browns,20,коричневый,коричневый,4081.40000009537
611696d636ea325025968f22,307,no,browns,1,песочный,песочный,7168.90000009537
611abff4b05dc43490e61ea3,300,yes,yellows,20,оранжевый,оранжевый,15897
611abff4b05dc43490e61ea3,301,yes,browns,1,бежевый,бежевый,13423
611abff4b05dc43490e61ea3,302,yes,blues,1,Голубой,Голубой,22047
611abff4b05dc43490e61ea3,303,yes,browns,20,коричневый,коричневый,12962
611abff4b05dc43490e61ea3,304,yes,reds,20,красный,красный,5238
611abff4b05dc43490e61ea3,305,yes,yellows,1,желтый,желтый,6897
611abff4b05dc43490e61ea3,306,yes,blues,20,синий,синий,3307
611abff4b05dc43490e61ea3,307,yes,reds,1,розовый,розовый,5684