"","subject_id","trial_index","colour","target","distractor","accuracy","rt","is.transition","language"
"6","54af2a48fdf99b09c01b3801",5,"blues",12,14,0,1082.09999990463,FALSE,"English"
"7","54af2a48fdf99b09c01b3801",6,"yellows",17,19,1,881.10000038147,FALSE,"English"
"8","54af2a48fdf99b09c01b3801",7,"yellows",3,1,1,713.5,FALSE,"English"
"9","54af2a48fdf99b09c01b3801",8,"reds",19,17,1,833.89999961853,FALSE,"English"
"10","54af2a48fdf99b09c01b3801",9,"browns",1,3,1,1092.09999990463,FALSE,"English"
"11","54af2a48fdf99b09c01b3801",10,"browns",6,4,1,659.200000286102,FALSE,"English"
"12","54af2a48fdf99b09c01b3801",11,"blues",11,9,1,951.900000095367,FALSE,"English"
"13","54af2a48fdf99b09c01b3801",12,"reds",10,12,0,903.800000190735,FALSE,"English"
"14","54af2a48fdf99b09c01b3801",13,"yellows",15,17,1,965,FALSE,"English"
"15","54af2a48fdf99b09c01b3801",14,"reds",15,17,1,960.39999961853,FALSE,"English"
"16","54af2a48fdf99b09c01b3801",15,"reds",8,10,0,1017.10000038147,FALSE,"English"
"17","54af2a48fdf99b09c01b3801",16,"browns",19,17,1,1194.69999980927,FALSE,"English"
"18","54af2a48fdf99b09c01b3801",17,"blues",10,8,0,771.5,FALSE,"English"
"19","54af2a48fdf99b09c01b3801",18,"reds",16,18,1,1048,FALSE,"English"
"20","54af2a48fdf99b09c01b3801",19,"browns",3,5,1,943.199999809265,FALSE,"English"
"21","54af2a48fdf99b09c01b3801",20,"blues",11,9,0,1029.89999961853,FALSE,"English"
"22","54af2a48fdf99b09c01b3801",21,"blues",4,2,0,1349.10000038147,FALSE,"English"
"23","54af2a48fdf99b09c01b3801",22,"browns",15,13,1,769.5,FALSE,"English"
"24","54af2a48fdf99b09c01b3801",23,"yellows",7,9,1,878.599999904633,FALSE,"English"
"25","54af2a48fdf99b09c01b3801",24,"browns",15,13,1,1161.09999990463,FALSE,"English"
"26","54af2a48fdf99b09c01b3801",25,"reds",8,6,1,872.5,FALSE,"English"
"27","54af2a48fdf99b09c01b3801",26,"yellows",13,15,0,654.900000095367,FALSE,"English"
"28","54af2a48fdf99b09c01b3801",27,"blues",4,6,0,1208.90000009537,FALSE,"English"
"29","54af2a48fdf99b09c01b3801",28,"yellows",10,8,1,1563.59999990463,FALSE,"English"
"30","54af2a48fdf99b09c01b3801",29,"browns",2,4,1,998.199999809265,FALSE,"English"
"31","54af2a48fdf99b09c01b3801",30,"reds",17,15,0,1170.5,FALSE,"English"
"32","54af2a48fdf99b09c01b3801",31,"browns",15,17,0,729.199999809265,FALSE,"English"
"33","54af2a48fdf99b09c01b3801",32,"blues",18,20,0,1452.5,FALSE,"English"
"34","54af2a48fdf99b09c01b3801",33,"reds",11,9,1,1260.10000038147,FALSE,"English"
"35","54af2a48fdf99b09c01b3801",34,"blues",13,11,1,864.699999809265,TRUE,"English"
"36","54af2a48fdf99b09c01b3801",35,"reds",16,14,1,1102.59999990463,FALSE,"English"
"37","54af2a48fdf99b09c01b3801",36,"blues",20,18,1,1087.59999990463,FALSE,"English"
"38","54af2a48fdf99b09c01b3801",37,"blues",17,19,1,1073.19999980927,FALSE,"English"
"39","54af2a48fdf99b09c01b3801",38,"blues",19,17,1,740.300000190735,FALSE,"English"
"40","54af2a48fdf99b09c01b3801",39,"reds",13,15,0,734.60000038147,TRUE,"English"
"41","54af2a48fdf99b09c01b3801",40,"blues",13,15,1,747.700000286102,FALSE,"English"
"42","54af2a48fdf99b09c01b3801",41,"yellows",18,20,1,1168.40000009537,FALSE,"English"
"43","54af2a48fdf99b09c01b3801",42,"yellows",12,10,1,2099.80000019073,TRUE,"English"
"44","54af2a48fdf99b09c01b3801",43,"yellows",5,3,1,1009.2999997139,FALSE,"English"
"45","54af2a48fdf99b09c01b3801",44,"reds",4,2,1,1064.80000019073,FALSE,"English"
"46","54af2a48fdf99b09c01b3801",45,"yellows",14,16,0,1295.80000019073,FALSE,"English"
"47","54af2a48fdf99b09c01b3801",46,"reds",13,15,0,1152.80000019073,TRUE,"English"
"48","54af2a48fdf99b09c01b3801",47,"browns",12,10,1,695.5,TRUE,"English"
"49","54af2a48fdf99b09c01b3801",48,"yellows",10,12,1,862.199999809265,TRUE,"English"
"50","54af2a48fdf99b09c01b3801",49,"yellows",10,8,1,706,FALSE,"English"
"51","54af2a48fdf99b09c01b3801",50,"blues",17,15,0,625.900000095367,FALSE,"English"
"52","54af2a48fdf99b09c01b3801",51,"yellows",13,15,1,1523.7999997139,FALSE,"English"
"53","54af2a48fdf99b09c01b3801",52,"browns",13,15,1,788.599999904633,FALSE,"English"
"54","54af2a48fdf99b09c01b3801",53,"yellows",5,3,1,757.800000190735,FALSE,"English"
"56","54af2a48fdf99b09c01b3801",55,"browns",4,6,1,1134.80000019073,FALSE,"English"
"57","54af2a48fdf99b09c01b3801",56,"reds",3,5,1,1085.7000002861,FALSE,"English"
"58","54af2a48fdf99b09c01b3801",57,"yellows",18,16,1,690.400000095367,FALSE,"English"
"59","54af2a48fdf99b09c01b3801",58,"yellows",7,9,1,1115.59999990463,FALSE,"English"
"60","54af2a48fdf99b09c01b3801",59,"reds",10,8,1,1460.90000009537,FALSE,"English"
"61","54af2a48fdf99b09c01b3801",60,"blues",15,17,0,690.199999809265,FALSE,"English"
"62","54af2a48fdf99b09c01b3801",61,"reds",18,16,1,1781.90000009537,FALSE,"English"
"63","54af2a48fdf99b09c01b3801",62,"blues",12,10,1,567.5,TRUE,"English"
"64","54af2a48fdf99b09c01b3801",63,"yellows",20,18,1,633.200000286102,FALSE,"English"
"65","54af2a48fdf99b09c01b3801",64,"yellows",6,4,0,874,FALSE,"English"
"66","54af2a48fdf99b09c01b3801",65,"blues",15,13,1,599.799999713898,FALSE,"English"
"67","54af2a48fdf99b09c01b3801",66,"blues",10,12,1,866.800000190735,TRUE,"English"
"68","54af2a48fdf99b09c01b3801",67,"reds",9,7,1,583.599999904633,FALSE,"English"
"69","54af2a48fdf99b09c01b3801",68,"browns",10,12,1,1207.60000038147,TRUE,"English"
"70","54af2a48fdf99b09c01b3801",69,"blues",14,12,1,829.200000286102,FALSE,"English"
"71","54af2a48fdf99b09c01b3801",70,"yellows",15,13,1,646.900000095367,FALSE,"English"
"72","54af2a48fdf99b09c01b3801",71,"browns",18,16,1,651,FALSE,"English"
"73","54af2a48fdf99b09c01b3801",72,"blues",12,10,1,1158.40000009537,TRUE,"English"
"74","54af2a48fdf99b09c01b3801",73,"browns",2,4,1,718.300000190735,FALSE,"English"
"75","54af2a48fdf99b09c01b3801",74,"browns",17,19,1,963.400000095367,FALSE,"English"
"76","54af2a48fdf99b09c01b3801",75,"blues",9,7,1,695.900000095367,FALSE,"English"
"77","54af2a48fdf99b09c01b3801",76,"blues",3,5,1,1332.7000002861,FALSE,"English"
"78","54af2a48fdf99b09c01b3801",77,"yellows",3,5,1,1274.7000002861,FALSE,"English"
"79","54af2a48fdf99b09c01b3801",78,"browns",18,20,1,867.200000286102,FALSE,"English"
"80","54af2a48fdf99b09c01b3801",79,"reds",16,14,1,999.800000190735,FALSE,"English"
"81","54af2a48fdf99b09c01b3801",80,"reds",20,18,1,2023.19999980927,FALSE,"English"
"82","54af2a48fdf99b09c01b3801",81,"browns",11,9,1,566.5,FALSE,"English"
"83","54af2a48fdf99b09c01b3801",82,"reds",19,17,1,737.700000286102,FALSE,"English"
"84","54af2a48fdf99b09c01b3801",83,"reds",13,11,1,1002.30000019073,TRUE,"English"
"85","54af2a48fdf99b09c01b3801",84,"blues",16,18,1,1286.69999980927,FALSE,"English"
"86","54af2a48fdf99b09c01b3801",85,"reds",9,11,1,1466.40000009537,FALSE,"English"
"87","54af2a48fdf99b09c01b3801",86,"yellows",17,19,1,732.900000095367,FALSE,"English"
"88","54af2a48fdf99b09c01b3801",87,"reds",8,10,1,971.400000095367,FALSE,"English"
"89","54af2a48fdf99b09c01b3801",88,"reds",7,9,1,1100.90000009537,FALSE,"English"
"90","54af2a48fdf99b09c01b3801",89,"blues",17,15,1,628.099999904633,FALSE,"English"
"91","54af2a48fdf99b09c01b3801",90,"reds",3,1,1,935.699999809265,FALSE,"English"
"92","54af2a48fdf99b09c01b3801",91,"browns",17,19,1,823.699999809265,FALSE,"English"
"93","54af2a48fdf99b09c01b3801",92,"yellows",13,11,1,640.60000038147,FALSE,"English"
"94","54af2a48fdf99b09c01b3801",93,"yellows",15,13,0,2759.19999980927,FALSE,"English"
"95","54af2a48fdf99b09c01b3801",94,"browns",9,7,1,546.799999713898,FALSE,"English"
"96","54af2a48fdf99b09c01b3801",95,"yellows",11,9,1,813.099999904633,TRUE,"English"
"97","54af2a48fdf99b09c01b3801",96,"yellows",16,18,0,612.299999713898,FALSE,"English"
"98","54af2a48fdf99b09c01b3801",97,"reds",12,10,1,1274.5,FALSE,"English"
"99","54af2a48fdf99b09c01b3801",98,"blues",5,3,1,978.400000095367,FALSE,"English"
"100","54af2a48fdf99b09c01b3801",99,"browns",17,15,1,636.5,FALSE,"English"
"101","54af2a48fdf99b09c01b3801",100,"browns",16,14,1,719.5,FALSE,"English"
"102","54af2a48fdf99b09c01b3801",101,"yellows",13,11,0,1353.59999990463,FALSE,"English"
"103","54af2a48fdf99b09c01b3801",102,"reds",5,7,1,751.5,FALSE,"English"
"104","54af2a48fdf99b09c01b3801",103,"yellows",16,14,1,624.300000190735,FALSE,"English"
"105","54af2a48fdf99b09c01b3801",104,"browns",17,15,1,580,FALSE,"English"
"107","54af2a48fdf99b09c01b3801",106,"yellows",9,7,0,1503.30000019073,FALSE,"English"
"108","54af2a48fdf99b09c01b3801",107,"browns",4,2,1,709.300000190735,FALSE,"English"
"109","54af2a48fdf99b09c01b3801",108,"reds",1,3,0,729.5,FALSE,"English"
"110","54af2a48fdf99b09c01b3801",109,"yellows",1,3,1,1204.59999990463,FALSE,"English"
"111","54af2a48fdf99b09c01b3801",110,"browns",7,5,1,675.200000286102,FALSE,"English"
"112","54af2a48fdf99b09c01b3801",111,"yellows",5,7,0,706.300000190735,FALSE,"English"
"113","54af2a48fdf99b09c01b3801",112,"yellows",14,12,1,703.60000038147,FALSE,"English"
"114","54af2a48fdf99b09c01b3801",113,"blues",10,12,0,683.400000095367,TRUE,"English"
"115","54af2a48fdf99b09c01b3801",114,"blues",8,6,1,987.400000095367,FALSE,"English"
"116","54af2a48fdf99b09c01b3801",115,"blues",1,3,1,736.300000190735,FALSE,"English"
"117","54af2a48fdf99b09c01b3801",116,"reds",13,11,1,645.099999904633,TRUE,"English"
"118","54af2a48fdf99b09c01b3801",117,"browns",4,2,1,603.599999904633,FALSE,"English"
"119","54af2a48fdf99b09c01b3801",118,"yellows",16,18,1,825.39999961853,FALSE,"English"
"120","54af2a48fdf99b09c01b3801",119,"blues",14,16,0,1468.30000019073,FALSE,"English"
"121","54af2a48fdf99b09c01b3801",120,"reds",10,8,1,708.599999904633,FALSE,"English"
"122","54af2a48fdf99b09c01b3801",121,"reds",17,19,0,750.300000190735,FALSE,"English"
"123","54af2a48fdf99b09c01b3801",122,"reds",17,19,1,1286.69999980927,FALSE,"English"
"124","54af2a48fdf99b09c01b3801",123,"reds",5,3,1,725.599999904633,FALSE,"English"
"125","54af2a48fdf99b09c01b3801",124,"browns",20,18,1,690.599999904633,FALSE,"English"
"126","54af2a48fdf99b09c01b3801",125,"yellows",8,10,0,1081.40000009537,FALSE,"English"
"127","54af2a48fdf99b09c01b3801",126,"reds",4,6,0,651.200000286102,FALSE,"English"
"128","54af2a48fdf99b09c01b3801",127,"yellows",17,15,1,633.699999809265,FALSE,"English"
"129","54af2a48fdf99b09c01b3801",128,"reds",18,20,1,1352.7999997139,FALSE,"English"
"130","54af2a48fdf99b09c01b3801",129,"reds",3,5,1,878.299999713898,FALSE,"English"
"131","54af2a48fdf99b09c01b3801",130,"browns",11,13,1,845.199999809265,TRUE,"English"
"132","54af2a48fdf99b09c01b3801",131,"browns",10,8,1,628.900000095367,FALSE,"English"
"133","54af2a48fdf99b09c01b3801",132,"reds",14,16,0,777.599999904633,FALSE,"English"
"134","54af2a48fdf99b09c01b3801",133,"reds",17,15,0,675.200000286102,FALSE,"English"
"135","54af2a48fdf99b09c01b3801",134,"yellows",8,6,1,652,FALSE,"English"
"136","54af2a48fdf99b09c01b3801",135,"yellows",18,20,0,729.099999904633,FALSE,"English"
"137","54af2a48fdf99b09c01b3801",136,"yellows",3,1,1,739.799999713898,FALSE,"English"
"138","54af2a48fdf99b09c01b3801",137,"browns",8,10,1,763.300000190735,FALSE,"English"
"139","54af2a48fdf99b09c01b3801",138,"yellows",8,10,1,917.700000286102,FALSE,"English"
"140","54af2a48fdf99b09c01b3801",139,"yellows",12,14,1,1062.69999980927,FALSE,"English"
"141","54af2a48fdf99b09c01b3801",140,"reds",6,8,1,1292.90000009537,FALSE,"English"
"142","54af2a48fdf99b09c01b3801",141,"browns",13,11,1,1472.59999990463,TRUE,"English"
"143","54af2a48fdf99b09c01b3801",142,"blues",8,10,0,1114.2000002861,FALSE,"English"
"144","54af2a48fdf99b09c01b3801",143,"blues",13,15,1,1270.5,FALSE,"English"
"145","54af2a48fdf99b09c01b3801",144,"blues",18,16,1,610.200000286102,FALSE,"English"
"146","54af2a48fdf99b09c01b3801",145,"reds",2,4,0,939.299999713898,FALSE,"English"
"147","54af2a48fdf99b09c01b3801",146,"blues",3,5,1,707.900000095367,FALSE,"English"
"148","54af2a48fdf99b09c01b3801",147,"reds",1,3,0,995.699999809265,FALSE,"English"
"149","54af2a48fdf99b09c01b3801",148,"browns",3,1,1,694.60000038147,FALSE,"English"
"150","54af2a48fdf99b09c01b3801",149,"reds",9,11,1,1350.2999997139,FALSE,"English"
"151","54af2a48fdf99b09c01b3801",150,"reds",5,3,1,1139.5,FALSE,"English"
"152","54af2a48fdf99b09c01b3801",151,"blues",7,5,1,1676.2999997139,FALSE,"English"
"153","54af2a48fdf99b09c01b3801",152,"browns",12,14,0,643.900000095367,TRUE,"English"
"154","54af2a48fdf99b09c01b3801",153,"yellows",6,8,1,1069.59999990463,FALSE,"English"
"155","54af2a48fdf99b09c01b3801",154,"blues",11,13,1,2196.80000019073,TRUE,"English"
"156","54af2a48fdf99b09c01b3801",155,"blues",1,3,1,1191.69999980927,FALSE,"English"
"158","54af2a48fdf99b09c01b3801",157,"yellows",16,14,1,1305,FALSE,"English"
"159","54af2a48fdf99b09c01b3801",158,"blues",16,14,1,616.199999809265,FALSE,"English"
"160","54af2a48fdf99b09c01b3801",159,"browns",14,16,0,563.299999713898,FALSE,"English"
"161","54af2a48fdf99b09c01b3801",160,"blues",2,4,1,680,FALSE,"English"
"162","54af2a48fdf99b09c01b3801",161,"reds",10,12,1,883.199999809265,FALSE,"English"
"163","54af2a48fdf99b09c01b3801",162,"browns",13,11,1,537.900000095367,TRUE,"English"
"164","54af2a48fdf99b09c01b3801",163,"blues",19,17,1,620.60000038147,FALSE,"English"
"165","54af2a48fdf99b09c01b3801",164,"browns",9,11,1,834.099999904633,FALSE,"English"
"166","54af2a48fdf99b09c01b3801",165,"yellows",11,9,1,623.800000190735,TRUE,"English"
"167","54af2a48fdf99b09c01b3801",166,"reds",7,5,1,648.60000038147,FALSE,"English"
"168","54af2a48fdf99b09c01b3801",167,"browns",6,8,1,806.400000095367,FALSE,"English"
"169","54af2a48fdf99b09c01b3801",168,"browns",6,4,1,671.799999713898,FALSE,"English"
"170","54af2a48fdf99b09c01b3801",169,"blues",16,14,1,590.400000095367,FALSE,"English"
"171","54af2a48fdf99b09c01b3801",170,"browns",3,5,1,686.699999809265,FALSE,"English"
"172","54af2a48fdf99b09c01b3801",171,"blues",20,18,1,661.599999904633,FALSE,"English"
"173","54af2a48fdf99b09c01b3801",172,"yellows",6,4,1,640.400000095367,FALSE,"English"
"174","54af2a48fdf99b09c01b3801",173,"yellows",6,8,0,860.900000095367,FALSE,"English"
"175","54af2a48fdf99b09c01b3801",174,"browns",4,6,1,790.89999961853,FALSE,"English"
"176","54af2a48fdf99b09c01b3801",175,"yellows",7,5,1,1666.7000002861,FALSE,"English"
"177","54af2a48fdf99b09c01b3801",176,"blues",7,9,1,645.299999713898,FALSE,"English"
"178","54af2a48fdf99b09c01b3801",177,"yellows",12,10,1,713.599999904633,TRUE,"English"
"179","54af2a48fdf99b09c01b3801",178,"reds",6,4,1,678.900000095367,FALSE,"English"
"180","54af2a48fdf99b09c01b3801",179,"blues",7,5,1,589.199999809265,FALSE,"English"
"181","54af2a48fdf99b09c01b3801",180,"browns",16,18,1,1037.40000009537,FALSE,"English"
"182","54af2a48fdf99b09c01b3801",181,"browns",8,6,1,589.099999904633,FALSE,"English"
"183","54af2a48fdf99b09c01b3801",182,"blues",3,1,1,630.900000095367,FALSE,"English"
"184","54af2a48fdf99b09c01b3801",183,"blues",3,1,1,563.5,FALSE,"English"
"185","54af2a48fdf99b09c01b3801",184,"browns",5,3,1,627.099999904633,FALSE,"English"
"186","54af2a48fdf99b09c01b3801",185,"reds",4,6,1,672.5,FALSE,"English"
"187","54af2a48fdf99b09c01b3801",186,"browns",6,8,1,656.599999904633,FALSE,"English"
"188","54af2a48fdf99b09c01b3801",187,"yellows",4,6,1,851.300000190735,FALSE,"English"
"189","54af2a48fdf99b09c01b3801",188,"browns",18,16,1,674.5,FALSE,"English"
"190","54af2a48fdf99b09c01b3801",189,"blues",5,7,1,707.699999809265,FALSE,"English"
"191","54af2a48fdf99b09c01b3801",190,"reds",12,14,1,1661.09999990463,TRUE,"English"
"192","54af2a48fdf99b09c01b3801",191,"browns",7,9,1,649.699999809265,FALSE,"English"
"193","54af2a48fdf99b09c01b3801",192,"reds",9,7,0,2046.90000009537,FALSE,"English"
"194","54af2a48fdf99b09c01b3801",193,"browns",16,18,1,1033.5,FALSE,"English"
"195","54af2a48fdf99b09c01b3801",194,"reds",8,6,1,1780,FALSE,"English"
"196","54af2a48fdf99b09c01b3801",195,"blues",15,13,1,661.10000038147,FALSE,"English"
"197","54af2a48fdf99b09c01b3801",196,"reds",14,12,1,652,TRUE,"English"
"198","54af2a48fdf99b09c01b3801",197,"browns",7,9,1,642.10000038147,FALSE,"English"
"199","54af2a48fdf99b09c01b3801",198,"yellows",19,17,1,1325.5,FALSE,"English"
"200","54af2a48fdf99b09c01b3801",199,"blues",10,8,1,755.400000095367,FALSE,"English"
"201","54af2a48fdf99b09c01b3801",200,"reds",14,16,1,1265.5,FALSE,"English"
"202","54af2a48fdf99b09c01b3801",201,"yellows",18,16,1,675.10000038147,FALSE,"English"
"203","54af2a48fdf99b09c01b3801",202,"yellows",17,15,1,615.800000190735,FALSE,"English"
"204","54af2a48fdf99b09c01b3801",203,"blues",14,16,1,1202.30000019073,FALSE,"English"
"205","54af2a48fdf99b09c01b3801",204,"browns",19,17,0,780.299999713898,FALSE,"English"
"206","54af2a48fdf99b09c01b3801",205,"browns",15,17,1,671,FALSE,"English"
"207","54af2a48fdf99b09c01b3801",206,"browns",1,3,1,876,FALSE,"English"
"209","54af2a48fdf99b09c01b3801",208,"yellows",4,2,1,537.599999904633,FALSE,"English"
"210","54af2a48fdf99b09c01b3801",209,"blues",8,10,0,645.400000095367,FALSE,"English"
"211","54af2a48fdf99b09c01b3801",210,"yellows",4,2,1,640.599999904633,FALSE,"English"
"212","54af2a48fdf99b09c01b3801",211,"yellows",1,3,1,579.199999809265,FALSE,"English"
"213","54af2a48fdf99b09c01b3801",212,"reds",16,18,0,716.5,FALSE,"English"
"214","54af2a48fdf99b09c01b3801",213,"browns",5,7,0,706.099999904633,FALSE,"English"
"215","54af2a48fdf99b09c01b3801",214,"yellows",7,5,1,665.900000095367,FALSE,"English"
"216","54af2a48fdf99b09c01b3801",215,"yellows",14,12,1,580,FALSE,"English"
"217","54af2a48fdf99b09c01b3801",216,"blues",4,6,1,616.900000095367,FALSE,"English"
"218","54af2a48fdf99b09c01b3801",217,"yellows",10,12,1,605.200000286102,TRUE,"English"
"219","54af2a48fdf99b09c01b3801",218,"yellows",3,5,1,683.800000190735,FALSE,"English"
"220","54af2a48fdf99b09c01b3801",219,"blues",5,7,1,592.300000190735,FALSE,"English"
"221","54af2a48fdf99b09c01b3801",220,"yellows",19,17,1,602.700000286102,FALSE,"English"
"222","54af2a48fdf99b09c01b3801",221,"browns",20,18,1,592.299999713898,FALSE,"English"
"223","54af2a48fdf99b09c01b3801",222,"reds",11,9,1,694.199999809265,FALSE,"English"
"224","54af2a48fdf99b09c01b3801",223,"reds",18,20,1,1804,FALSE,"English"
"225","54af2a48fdf99b09c01b3801",224,"blues",18,20,0,545.900000095367,FALSE,"English"
"226","54af2a48fdf99b09c01b3801",225,"browns",11,9,1,580.299999713898,FALSE,"English"
"227","54af2a48fdf99b09c01b3801",226,"blues",14,12,1,564.300000190735,FALSE,"English"
"228","54af2a48fdf99b09c01b3801",227,"blues",11,13,1,772,TRUE,"English"
"229","54af2a48fdf99b09c01b3801",228,"reds",7,9,1,629.200000286102,FALSE,"English"
"230","54af2a48fdf99b09c01b3801",229,"blues",8,6,1,634.400000095367,FALSE,"English"
"231","54af2a48fdf99b09c01b3801",230,"browns",10,12,1,861.900000095367,TRUE,"English"
"232","54af2a48fdf99b09c01b3801",231,"browns",14,16,1,666.099999904633,FALSE,"English"
"233","54af2a48fdf99b09c01b3801",232,"blues",9,11,0,574.099999904633,FALSE,"English"
"234","54af2a48fdf99b09c01b3801",233,"reds",6,4,1,672.5,FALSE,"English"
"235","54af2a48fdf99b09c01b3801",234,"reds",15,13,1,549.199999809265,TRUE,"English"
"236","54af2a48fdf99b09c01b3801",235,"browns",8,10,1,1696.90000009537,FALSE,"English"
"237","54af2a48fdf99b09c01b3801",236,"blues",5,3,1,570.400000095367,FALSE,"English"
"238","54af2a48fdf99b09c01b3801",237,"reds",20,18,1,844.299999713898,FALSE,"English"
"239","54af2a48fdf99b09c01b3801",238,"yellows",9,11,0,554.89999961853,TRUE,"English"
"240","54af2a48fdf99b09c01b3801",239,"blues",16,18,1,853.199999809265,FALSE,"English"
"241","54af2a48fdf99b09c01b3801",240,"reds",7,5,1,675.599999904633,FALSE,"English"
"242","54af2a48fdf99b09c01b3801",241,"blues",9,11,1,559.099999904633,FALSE,"English"
"243","54af2a48fdf99b09c01b3801",242,"browns",14,12,1,587.599999904633,TRUE,"English"
"244","54af2a48fdf99b09c01b3801",243,"blues",6,4,1,606.199999809265,FALSE,"English"
"245","54af2a48fdf99b09c01b3801",244,"browns",18,20,1,1009,FALSE,"English"
"246","54af2a48fdf99b09c01b3801",245,"yellows",11,13,0,552,FALSE,"English"
"247","54af2a48fdf99b09c01b3801",246,"reds",15,17,0,600.599999904633,FALSE,"English"
"248","54af2a48fdf99b09c01b3801",247,"blues",2,4,1,819.800000190735,FALSE,"English"
"249","54af2a48fdf99b09c01b3801",248,"browns",9,7,1,635.699999809265,FALSE,"English"
"250","54af2a48fdf99b09c01b3801",249,"yellows",12,14,0,597,FALSE,"English"
"251","54af2a48fdf99b09c01b3801",250,"yellows",9,11,1,631.5,TRUE,"English"
"252","54af2a48fdf99b09c01b3801",251,"blues",15,17,0,691.800000190735,FALSE,"English"
"253","54af2a48fdf99b09c01b3801",252,"yellows",14,16,0,590.400000095367,FALSE,"English"
"254","54af2a48fdf99b09c01b3801",253,"blues",6,4,1,781,FALSE,"English"
"255","54af2a48fdf99b09c01b3801",254,"yellows",9,7,1,642,FALSE,"English"
"256","54af2a48fdf99b09c01b3801",255,"browns",13,15,1,707.799999713898,FALSE,"English"
"257","54af2a48fdf99b09c01b3801",256,"reds",11,13,0,618.5,TRUE,"English"
"258","54af2a48fdf99b09c01b3801",257,"reds",6,8,0,1211.90000009537,FALSE,"English"
"260","54af2a48fdf99b09c01b3801",259,"reds",12,10,1,491.5,FALSE,"English"
"261","54af2a48fdf99b09c01b3801",260,"browns",5,3,1,504.299999713898,FALSE,"English"
"262","54af2a48fdf99b09c01b3801",261,"blues",18,16,0,658.400000095367,FALSE,"English"
"263","54af2a48fdf99b09c01b3801",262,"yellows",15,17,0,621.300000190735,FALSE,"English"
"264","54af2a48fdf99b09c01b3801",263,"browns",12,14,0,531.900000095367,TRUE,"English"
"265","54af2a48fdf99b09c01b3801",264,"reds",18,16,0,1707,FALSE,"English"
"266","54af2a48fdf99b09c01b3801",265,"yellows",20,18,1,1140.2999997139,FALSE,"English"
"267","54af2a48fdf99b09c01b3801",266,"blues",17,19,1,1017.69999980927,FALSE,"English"
"268","54af2a48fdf99b09c01b3801",267,"browns",5,7,1,653.599999904633,FALSE,"English"
"269","54af2a48fdf99b09c01b3801",268,"yellows",5,7,0,923.599999904633,FALSE,"English"
"270","54af2a48fdf99b09c01b3801",269,"reds",4,2,1,629.599999904633,FALSE,"English"
"271","54af2a48fdf99b09c01b3801",270,"blues",6,8,1,735.400000095367,FALSE,"English"
"272","54af2a48fdf99b09c01b3801",271,"yellows",2,4,1,1003.59999990463,FALSE,"English"
"273","54af2a48fdf99b09c01b3801",272,"browns",7,5,1,646.199999809265,FALSE,"English"
"274","54af2a48fdf99b09c01b3801",273,"blues",7,9,1,621.800000190735,FALSE,"English"
"275","54af2a48fdf99b09c01b3801",274,"browns",11,13,1,677.199999809265,TRUE,"English"
"276","54af2a48fdf99b09c01b3801",275,"browns",8,6,1,636.10000038147,FALSE,"English"
"277","54af2a48fdf99b09c01b3801",276,"browns",14,12,1,561.5,TRUE,"English"
"278","54af2a48fdf99b09c01b3801",277,"reds",15,13,1,648.700000286102,TRUE,"English"
"279","54af2a48fdf99b09c01b3801",278,"browns",9,11,1,579.099999904633,FALSE,"English"
"280","54af2a48fdf99b09c01b3801",279,"reds",11,13,0,1234.90000009537,TRUE,"English"
"281","54af2a48fdf99b09c01b3801",280,"browns",12,10,1,710.099999904633,TRUE,"English"
"282","54af2a48fdf99b09c01b3801",281,"reds",14,12,1,1413.40000009537,TRUE,"English"
"283","54af2a48fdf99b09c01b3801",282,"blues",4,2,1,592.900000095367,FALSE,"English"
"284","54af2a48fdf99b09c01b3801",283,"yellows",2,4,1,1193.19999980927,FALSE,"English"
"285","54af2a48fdf99b09c01b3801",284,"yellows",8,6,1,530.400000095367,FALSE,"English"
"286","54af2a48fdf99b09c01b3801",285,"reds",12,14,1,604.099999904633,TRUE,"English"
"287","54af2a48fdf99b09c01b3801",286,"yellows",11,13,1,794.700000286102,FALSE,"English"
"288","54af2a48fdf99b09c01b3801",287,"browns",10,8,1,1059.09999990463,FALSE,"English"
"289","54af2a48fdf99b09c01b3801",288,"blues",13,11,1,1468.90000009537,TRUE,"English"
"290","54af2a48fdf99b09c01b3801",289,"reds",2,4,1,664.700000286102,FALSE,"English"
"291","54af2a48fdf99b09c01b3801",290,"reds",3,1,0,962.099999904633,FALSE,"English"
"292","54af2a48fdf99b09c01b3801",291,"blues",9,7,0,684.099999904633,FALSE,"English"
"293","54af2a48fdf99b09c01b3801",292,"blues",6,8,1,593.599999904633,FALSE,"English"
"294","54af2a48fdf99b09c01b3801",293,"reds",5,7,1,617.5,FALSE,"English"
"295","54af2a48fdf99b09c01b3801",294,"browns",16,14,1,596.699999809265,FALSE,"English"
"296","54af2a48fdf99b09c01b3801",295,"browns",3,1,1,611.400000095367,FALSE,"English"
"297","54af2a48fdf99b09c01b3801",296,"blues",12,14,0,1290.30000019073,FALSE,"English"
"298","54af2a48fdf99b09c01b3801",297,"yellows",4,6,0,631.599999904633,FALSE,"English"
"614","55ae6a39fdf99b44a305f1eb",5,"reds",9,11,1,1589.20000000298,FALSE,"English"
"714","55ae6a39fdf99b44a305f1eb",6,"browns",15,13,1,1345.10000000149,FALSE,"English"
"814","55ae6a39fdf99b44a305f1eb",7,"yellows",14,12,1,1333.79999999702,FALSE,"English"
"914","55ae6a39fdf99b44a305f1eb",8,"blues",10,12,1,1742.39999999851,TRUE,"English"
"1013","55ae6a39fdf99b44a305f1eb",9,"blues",1,3,1,853.10000000149,FALSE,"English"
"1114","55ae6a39fdf99b44a305f1eb",10,"yellows",10,12,1,1238.09999999404,FALSE,"English"
"1214","55ae6a39fdf99b44a305f1eb",11,"browns",6,8,1,789.19999999553,FALSE,"English"
"1314","55ae6a39fdf99b44a305f1eb",12,"reds",2,4,1,948.5,FALSE,"English"
"1414","55ae6a39fdf99b44a305f1eb",13,"yellows",16,14,1,1707.30000000447,FALSE,"English"
"1513","55ae6a39fdf99b44a305f1eb",14,"reds",10,8,1,1998.69999999553,FALSE,"English"
"1614","55ae6a39fdf99b44a305f1eb",15,"blues",4,6,1,956,FALSE,"English"
"1714","55ae6a39fdf99b44a305f1eb",16,"browns",14,12,1,1069.39999999851,FALSE,"English"
"1814","55ae6a39fdf99b44a305f1eb",17,"reds",14,12,1,944.09999999404,TRUE,"English"
"1914","55ae6a39fdf99b44a305f1eb",18,"browns",10,8,1,1342.20000000298,TRUE,"English"
"2013","55ae6a39fdf99b44a305f1eb",19,"blues",4,2,1,1300.29999999702,FALSE,"English"
"2114","55ae6a39fdf99b44a305f1eb",20,"browns",20,18,1,1889.79999999702,FALSE,"English"
"2214","55ae6a39fdf99b44a305f1eb",21,"yellows",9,11,1,3261.19999999553,FALSE,"English"
"2314","55ae6a39fdf99b44a305f1eb",22,"browns",12,14,1,1004.60000000149,FALSE,"English"
"2414","55ae6a39fdf99b44a305f1eb",23,"blues",8,10,1,1408.20000000298,FALSE,"English"
"2513","55ae6a39fdf99b44a305f1eb",24,"yellows",11,13,1,1578.39999999851,FALSE,"English"
"2614","55ae6a39fdf99b44a305f1eb",25,"yellows",16,18,1,1081.5,FALSE,"English"
"2714","55ae6a39fdf99b44a305f1eb",26,"blues",14,12,1,1174.5,FALSE,"English"
"2814","55ae6a39fdf99b44a305f1eb",27,"browns",17,15,1,1676.29999999702,FALSE,"English"
"2913","55ae6a39fdf99b44a305f1eb",28,"browns",16,14,1,1300,FALSE,"English"
"303","55ae6a39fdf99b44a305f1eb",29,"reds",14,16,0,1092.79999999702,FALSE,"English"
"313","55ae6a39fdf99b44a305f1eb",30,"yellows",19,17,1,1154.70000000298,FALSE,"English"
"323","55ae6a39fdf99b44a305f1eb",31,"yellows",4,6,1,986.69999999553,FALSE,"English"
"333","55ae6a39fdf99b44a305f1eb",32,"browns",8,10,1,1230.89999999851,TRUE,"English"
"343","55ae6a39fdf99b44a305f1eb",33,"reds",20,18,0,3642.30000000447,FALSE,"English"
"353","55ae6a39fdf99b44a305f1eb",34,"yellows",3,5,1,1443.60000000149,FALSE,"English"
"363","55ae6a39fdf99b44a305f1eb",35,"browns",5,7,1,1533.60000000149,FALSE,"English"
"373","55ae6a39fdf99b44a305f1eb",36,"reds",2,4,1,2891.69999999553,FALSE,"English"
"383","55ae6a39fdf99b44a305f1eb",37,"reds",15,13,1,3086,FALSE,"English"
"393","55ae6a39fdf99b44a305f1eb",38,"browns",4,2,1,1070.10000000149,FALSE,"English"
"403","55ae6a39fdf99b44a305f1eb",39,"browns",10,12,1,3272,TRUE,"English"
"413","55ae6a39fdf99b44a305f1eb",40,"yellows",17,15,1,978.20000000298,FALSE,"English"
"423","55ae6a39fdf99b44a305f1eb",41,"reds",9,7,1,1220.29999999702,FALSE,"English"
"433","55ae6a39fdf99b44a305f1eb",42,"blues",8,6,1,1603.59999999404,FALSE,"English"
"443","55ae6a39fdf99b44a305f1eb",43,"yellows",7,5,1,1704.79999999702,FALSE,"English"
"453","55ae6a39fdf99b44a305f1eb",44,"browns",15,17,1,1472.60000000149,FALSE,"English"
"463","55ae6a39fdf99b44a305f1eb",45,"reds",7,5,1,1178.30000000447,FALSE,"English"
"473","55ae6a39fdf99b44a305f1eb",46,"browns",8,6,1,1495.59999999404,FALSE,"English"
"483","55ae6a39fdf99b44a305f1eb",47,"yellows",2,4,1,1287.70000000298,FALSE,"English"
"493","55ae6a39fdf99b44a305f1eb",48,"blues",16,18,1,1167.79999999702,FALSE,"English"
"503","55ae6a39fdf99b44a305f1eb",49,"blues",12,14,1,1762.60000000149,FALSE,"English"
"513","55ae6a39fdf99b44a305f1eb",50,"reds",3,1,1,1567.20000000298,FALSE,"English"
"523","55ae6a39fdf99b44a305f1eb",51,"blues",19,17,1,1970.69999999553,FALSE,"English"
"533","55ae6a39fdf99b44a305f1eb",52,"blues",6,4,1,1136.39999999851,FALSE,"English"
"543","55ae6a39fdf99b44a305f1eb",53,"browns",1,3,1,839.60000000149,FALSE,"English"
"563","55ae6a39fdf99b44a305f1eb",55,"browns",14,12,1,1321.70000000298,FALSE,"English"
"573","55ae6a39fdf99b44a305f1eb",56,"yellows",18,20,1,1260.20000000298,FALSE,"English"
"583","55ae6a39fdf99b44a305f1eb",57,"yellows",15,13,0,2148.39999999851,FALSE,"English"
"593","55ae6a39fdf99b44a305f1eb",58,"yellows",12,14,1,1790,FALSE,"English"
"603","55ae6a39fdf99b44a305f1eb",59,"yellows",8,6,1,956.70000000298,TRUE,"English"
"615","55ae6a39fdf99b44a305f1eb",60,"yellows",15,17,1,994.89999999851,FALSE,"English"
"623","55ae6a39fdf99b44a305f1eb",61,"blues",5,7,1,899.5,FALSE,"English"
"633","55ae6a39fdf99b44a305f1eb",62,"yellows",2,4,1,999.20000000298,FALSE,"English"
"643","55ae6a39fdf99b44a305f1eb",63,"reds",11,13,1,1967,TRUE,"English"
"653","55ae6a39fdf99b44a305f1eb",64,"yellows",15,13,1,1724.20000000298,FALSE,"English"
"663","55ae6a39fdf99b44a305f1eb",65,"reds",17,19,1,1523.5,FALSE,"English"
"673","55ae6a39fdf99b44a305f1eb",66,"reds",11,9,1,1706.10000000149,FALSE,"English"
"683","55ae6a39fdf99b44a305f1eb",67,"reds",11,13,0,1556.5,TRUE,"English"
"693","55ae6a39fdf99b44a305f1eb",68,"blues",11,13,1,2475.5,TRUE,"English"
"703","55ae6a39fdf99b44a305f1eb",69,"yellows",7,9,1,1391.10000000149,TRUE,"English"
"715","55ae6a39fdf99b44a305f1eb",70,"browns",16,18,1,1883.5,FALSE,"English"
"723","55ae6a39fdf99b44a305f1eb",71,"browns",17,15,1,1120,FALSE,"English"
"733","55ae6a39fdf99b44a305f1eb",72,"browns",5,7,1,1132.19999999553,FALSE,"English"
"743","55ae6a39fdf99b44a305f1eb",73,"yellows",6,8,1,1440.79999999702,TRUE,"English"
"753","55ae6a39fdf99b44a305f1eb",74,"blues",20,18,1,2821.60000000149,FALSE,"English"
"763","55ae6a39fdf99b44a305f1eb",75,"reds",9,11,1,1974.29999999702,FALSE,"English"
"773","55ae6a39fdf99b44a305f1eb",76,"blues",3,1,0,1345.60000000149,FALSE,"English"
"783","55ae6a39fdf99b44a305f1eb",77,"browns",6,4,1,1065.60000000149,FALSE,"English"
"793","55ae6a39fdf99b44a305f1eb",78,"yellows",20,18,1,1034.5,FALSE,"English"
"803","55ae6a39fdf99b44a305f1eb",79,"yellows",17,15,1,2075.60000000149,FALSE,"English"
"815","55ae6a39fdf99b44a305f1eb",80,"reds",3,5,1,1390.29999999702,FALSE,"English"
"823","55ae6a39fdf99b44a305f1eb",81,"reds",10,8,1,928.20000000298,FALSE,"English"
"833","55ae6a39fdf99b44a305f1eb",82,"browns",10,12,0,1473.39999999851,TRUE,"English"
"843","55ae6a39fdf99b44a305f1eb",83,"browns",11,9,1,1366.60000000149,TRUE,"English"
"853","55ae6a39fdf99b44a305f1eb",84,"browns",18,16,1,1104.10000000149,FALSE,"English"
"863","55ae6a39fdf99b44a305f1eb",85,"blues",2,4,1,1125.89999999851,FALSE,"English"
"873","55ae6a39fdf99b44a305f1eb",86,"yellows",13,11,1,1706.60000000149,FALSE,"English"
"883","55ae6a39fdf99b44a305f1eb",87,"blues",7,9,1,908.60000000149,FALSE,"English"
"893","55ae6a39fdf99b44a305f1eb",88,"reds",17,15,1,2367.5,FALSE,"English"
"903","55ae6a39fdf99b44a305f1eb",89,"yellows",9,7,0,2.60000000149012,TRUE,"English"
"915","55ae6a39fdf99b44a305f1eb",90,"reds",8,6,1,1341.29999999702,FALSE,"English"
"923","55ae6a39fdf99b44a305f1eb",91,"blues",17,19,1,1569.59999999404,FALSE,"English"
"933","55ae6a39fdf99b44a305f1eb",92,"blues",8,10,1,1453.20000000298,FALSE,"English"
"943","55ae6a39fdf99b44a305f1eb",93,"reds",18,16,0,3601.5,FALSE,"English"
"953","55ae6a39fdf99b44a305f1eb",94,"reds",5,3,1,1502.70000000298,FALSE,"English"
"963","55ae6a39fdf99b44a305f1eb",95,"blues",4,6,1,1269,FALSE,"English"
"973","55ae6a39fdf99b44a305f1eb",96,"browns",8,6,1,993.89999999851,FALSE,"English"
"983","55ae6a39fdf99b44a305f1eb",97,"reds",10,12,1,1143.5,FALSE,"English"
"993","55ae6a39fdf99b44a305f1eb",98,"browns",13,15,1,1646.39999999851,FALSE,"English"
"1003","55ae6a39fdf99b44a305f1eb",99,"reds",18,16,1,1912.89999999851,FALSE,"English"
"1014","55ae6a39fdf99b44a305f1eb",100,"browns",13,11,1,1278.80000000447,TRUE,"English"
"1023","55ae6a39fdf99b44a305f1eb",101,"browns",7,5,1,1075.20000000298,FALSE,"English"
"1033","55ae6a39fdf99b44a305f1eb",102,"blues",5,7,1,1255.20000000298,FALSE,"English"
"1043","55ae6a39fdf99b44a305f1eb",103,"browns",9,7,1,914.69999999553,FALSE,"English"
"1053","55ae6a39fdf99b44a305f1eb",104,"browns",13,11,1,932.89999999851,TRUE,"English"
"1073","55ae6a39fdf99b44a305f1eb",106,"blues",5,3,1,1408.80000000447,FALSE,"English"
"1083","55ae6a39fdf99b44a305f1eb",107,"reds",7,5,1,1607.19999999553,FALSE,"English"
"1093","55ae6a39fdf99b44a305f1eb",108,"browns",19,17,1,1179,FALSE,"English"
"1103","55ae6a39fdf99b44a305f1eb",109,"browns",18,16,1,1566.10000000149,FALSE,"English"
"1115","55ae6a39fdf99b44a305f1eb",110,"yellows",4,2,1,3303.20000000298,FALSE,"English"
"1123","55ae6a39fdf99b44a305f1eb",111,"reds",7,9,1,1386.20000000298,FALSE,"English"
"1133","55ae6a39fdf99b44a305f1eb",112,"yellows",14,16,1,1276.5,FALSE,"English"
"1143","55ae6a39fdf99b44a305f1eb",113,"reds",4,2,1,932.40000000596,FALSE,"English"
"1153","55ae6a39fdf99b44a305f1eb",114,"yellows",9,11,0,2689.39999999851,FALSE,"English"
"1163","55ae6a39fdf99b44a305f1eb",115,"blues",14,16,0,1685.79999999702,FALSE,"English"
"1173","55ae6a39fdf99b44a305f1eb",116,"yellows",5,7,1,2168,FALSE,"English"
"1183","55ae6a39fdf99b44a305f1eb",117,"browns",4,6,1,1263.79999999702,FALSE,"English"
"1193","55ae6a39fdf99b44a305f1eb",118,"yellows",14,16,1,1456.09999999404,FALSE,"English"
"1203","55ae6a39fdf99b44a305f1eb",119,"browns",15,13,1,1311.40000000596,FALSE,"English"
"1215","55ae6a39fdf99b44a305f1eb",120,"browns",5,3,1,1098.39999999851,FALSE,"English"
"1223","55ae6a39fdf99b44a305f1eb",121,"blues",19,17,1,2387.5,FALSE,"English"
"1233","55ae6a39fdf99b44a305f1eb",122,"reds",19,17,0,2559.29999999702,FALSE,"English"
"1243","55ae6a39fdf99b44a305f1eb",123,"blues",12,10,1,992.5,TRUE,"English"
"1253","55ae6a39fdf99b44a305f1eb",124,"browns",18,20,1,3197.39999999851,FALSE,"English"
"1263","55ae6a39fdf99b44a305f1eb",125,"browns",15,17,1,1548.80000000447,FALSE,"English"
"1273","55ae6a39fdf99b44a305f1eb",126,"yellows",18,16,1,771,FALSE,"English"
"1283","55ae6a39fdf99b44a305f1eb",127,"reds",12,10,1,1579,FALSE,"English"
"1293","55ae6a39fdf99b44a305f1eb",128,"browns",3,5,1,1572.79999999702,FALSE,"English"
"1303","55ae6a39fdf99b44a305f1eb",129,"reds",16,14,1,1653.60000000149,FALSE,"English"
"1315","55ae6a39fdf99b44a305f1eb",130,"blues",10,12,1,1183.59999999404,TRUE,"English"
"1323","55ae6a39fdf99b44a305f1eb",131,"reds",7,9,1,1386.69999999553,FALSE,"English"
"1333","55ae6a39fdf99b44a305f1eb",132,"blues",2,4,1,1005.39999999851,FALSE,"English"
"1343","55ae6a39fdf99b44a305f1eb",133,"blues",18,20,1,1725.59999999404,FALSE,"English"
"1353","55ae6a39fdf99b44a305f1eb",134,"reds",20,18,1,1151.89999999851,FALSE,"English"
"1363","55ae6a39fdf99b44a305f1eb",135,"reds",13,15,1,2460.60000000149,FALSE,"English"
"1373","55ae6a39fdf99b44a305f1eb",136,"browns",7,9,1,1157.89999999851,FALSE,"English"
"1383","55ae6a39fdf99b44a305f1eb",137,"yellows",11,13,1,1410.30000000447,FALSE,"English"
"1393","55ae6a39fdf99b44a305f1eb",138,"blues",1,3,1,1155.60000000149,FALSE,"English"
"1403","55ae6a39fdf99b44a305f1eb",139,"reds",17,19,1,1421.89999999851,FALSE,"English"
"1415","55ae6a39fdf99b44a305f1eb",140,"reds",14,12,1,858.69999999553,TRUE,"English"
"1423","55ae6a39fdf99b44a305f1eb",141,"blues",9,11,1,1778.30000000447,TRUE,"English"
"1433","55ae6a39fdf99b44a305f1eb",142,"blues",11,9,1,969.80000000447,TRUE,"English"
"1443","55ae6a39fdf99b44a305f1eb",143,"yellows",10,12,1,1407.80000000447,FALSE,"English"
"1453","55ae6a39fdf99b44a305f1eb",144,"yellows",5,3,1,1216.39999999851,FALSE,"English"
"1463","55ae6a39fdf99b44a305f1eb",145,"yellows",13,15,1,1150,FALSE,"English"
"1473","55ae6a39fdf99b44a305f1eb",146,"browns",12,10,1,1206.60000000149,TRUE,"English"
"1483","55ae6a39fdf99b44a305f1eb",147,"reds",16,18,1,2087.29999999702,FALSE,"English"
"1493","55ae6a39fdf99b44a305f1eb",148,"yellows",11,9,1,1241.29999999702,FALSE,"English"
"1503","55ae6a39fdf99b44a305f1eb",149,"reds",3,1,1,1382.69999999553,FALSE,"English"
"1514","55ae6a39fdf99b44a305f1eb",150,"yellows",7,5,1,847.89999999851,FALSE,"English"
"1523","55ae6a39fdf99b44a305f1eb",151,"reds",8,10,1,1406.20000000298,FALSE,"English"
"1533","55ae6a39fdf99b44a305f1eb",152,"yellows",17,19,1,1026.90000000596,FALSE,"English"
"1543","55ae6a39fdf99b44a305f1eb",153,"blues",16,14,1,787.19999999553,FALSE,"English"
"1553","55ae6a39fdf99b44a305f1eb",154,"yellows",18,16,1,832.10000000149,FALSE,"English"
"1563","55ae6a39fdf99b44a305f1eb",155,"yellows",1,3,0,1008,FALSE,"English"
"1583","55ae6a39fdf99b44a305f1eb",157,"blues",10,8,1,1170.30000000447,FALSE,"English"
"1593","55ae6a39fdf99b44a305f1eb",158,"blues",15,13,1,2169.39999999851,FALSE,"English"
"1603","55ae6a39fdf99b44a305f1eb",159,"reds",5,7,1,976.10000000149,FALSE,"English"
"1615","55ae6a39fdf99b44a305f1eb",160,"blues",7,9,1,1286.89999999851,FALSE,"English"
"1623","55ae6a39fdf99b44a305f1eb",161,"yellows",6,4,1,1111.59999999404,FALSE,"English"
"1633","55ae6a39fdf99b44a305f1eb",162,"reds",6,8,1,2175.29999999702,FALSE,"English"
"1643","55ae6a39fdf99b44a305f1eb",163,"browns",20,18,1,1474,FALSE,"English"
"1653","55ae6a39fdf99b44a305f1eb",164,"blues",15,17,1,1461.20000000298,FALSE,"English"
"1663","55ae6a39fdf99b44a305f1eb",165,"reds",8,6,1,808.20000000298,FALSE,"English"
"1673","55ae6a39fdf99b44a305f1eb",166,"blues",13,11,1,1130.20000000298,TRUE,"English"
"1683","55ae6a39fdf99b44a305f1eb",167,"yellows",10,8,1,788.30000000447,TRUE,"English"
"1693","55ae6a39fdf99b44a305f1eb",168,"yellows",3,5,1,794.39999999851,FALSE,"English"
"1703","55ae6a39fdf99b44a305f1eb",169,"reds",13,11,1,1796.20000000298,TRUE,"English"
"1715","55ae6a39fdf99b44a305f1eb",170,"reds",4,2,1,1256.79999999702,FALSE,"English"
"1723","55ae6a39fdf99b44a305f1eb",171,"blues",18,16,1,905.60000000149,FALSE,"English"
"1733","55ae6a39fdf99b44a305f1eb",172,"yellows",4,6,1,1317.29999999702,FALSE,"English"
"1743","55ae6a39fdf99b44a305f1eb",173,"yellows",12,10,1,1597.20000000298,FALSE,"English"
"1753","55ae6a39fdf99b44a305f1eb",174,"browns",9,7,1,1041.39999999851,FALSE,"English"
"1763","55ae6a39fdf99b44a305f1eb",175,"reds",10,12,1,3411.79999999702,FALSE,"English"
"1773","55ae6a39fdf99b44a305f1eb",176,"reds",5,3,1,700.10000000149,FALSE,"English"
"1783","55ae6a39fdf99b44a305f1eb",177,"blues",14,16,1,1323.29999999702,FALSE,"English"
"1793","55ae6a39fdf99b44a305f1eb",178,"yellows",16,14,1,1542.89999999851,FALSE,"English"
"1803","55ae6a39fdf99b44a305f1eb",179,"browns",3,1,1,963,FALSE,"English"
"1815","55ae6a39fdf99b44a305f1eb",180,"blues",6,8,1,958.39999999851,FALSE,"English"
"1823","55ae6a39fdf99b44a305f1eb",181,"blues",6,8,1,969.10000000149,FALSE,"English"
"1833","55ae6a39fdf99b44a305f1eb",182,"yellows",11,9,1,812.39999999851,FALSE,"English"
"1843","55ae6a39fdf99b44a305f1eb",183,"reds",4,6,1,1087.70000000298,FALSE,"English"
"1853","55ae6a39fdf99b44a305f1eb",184,"reds",18,20,1,2530.70000000298,FALSE,"English"
"1863","55ae6a39fdf99b44a305f1eb",185,"blues",18,16,1,830.5,FALSE,"English"
"1873","55ae6a39fdf99b44a305f1eb",186,"reds",9,7,1,737.30000000447,FALSE,"English"
"1883","55ae6a39fdf99b44a305f1eb",187,"yellows",19,17,1,777.30000000447,FALSE,"English"
"1893","55ae6a39fdf99b44a305f1eb",188,"browns",12,14,1,870.30000000447,FALSE,"English"
"1903","55ae6a39fdf99b44a305f1eb",189,"yellows",16,18,1,1250.89999999851,FALSE,"English"
"1915","55ae6a39fdf99b44a305f1eb",190,"blues",15,13,1,1026.69999999553,FALSE,"English"
"1923","55ae6a39fdf99b44a305f1eb",191,"reds",12,10,1,848.10000000149,FALSE,"English"
"1933","55ae6a39fdf99b44a305f1eb",192,"reds",13,15,1,1383.29999999702,FALSE,"English"
"1943","55ae6a39fdf99b44a305f1eb",193,"browns",4,6,1,1541.39999999851,FALSE,"English"
"1953","55ae6a39fdf99b44a305f1eb",194,"yellows",3,1,1,1823.09999999404,FALSE,"English"
"1963","55ae6a39fdf99b44a305f1eb",195,"browns",16,18,1,1183.60000000149,FALSE,"English"
"1973","55ae6a39fdf99b44a305f1eb",196,"yellows",10,8,1,1510.5,TRUE,"English"
"1983","55ae6a39fdf99b44a305f1eb",197,"yellows",7,9,1,1040.5,TRUE,"English"
"1993","55ae6a39fdf99b44a305f1eb",198,"blues",13,15,1,1138.79999999702,FALSE,"English"
"2003","55ae6a39fdf99b44a305f1eb",199,"blues",3,1,1,845.39999999851,FALSE,"English"
"2014","55ae6a39fdf99b44a305f1eb",200,"browns",11,9,1,771.39999999851,TRUE,"English"
"2023","55ae6a39fdf99b44a305f1eb",201,"yellows",18,20,1,956.79999999702,FALSE,"English"
"2033","55ae6a39fdf99b44a305f1eb",202,"blues",4,2,1,863.5,FALSE,"English"
"2043","55ae6a39fdf99b44a305f1eb",203,"yellows",8,6,1,1780.60000000149,TRUE,"English"
"2053","55ae6a39fdf99b44a305f1eb",204,"blues",9,11,1,1089.70000000298,TRUE,"English"
"2063","55ae6a39fdf99b44a305f1eb",205,"browns",9,11,0,2642.10000000149,TRUE,"English"
"2073","55ae6a39fdf99b44a305f1eb",206,"reds",12,14,0,4358.5,TRUE,"English"
"2093","55ae6a39fdf99b44a305f1eb",208,"yellows",6,4,1,874.29999999702,FALSE,"English"
"2103","55ae6a39fdf99b44a305f1eb",209,"blues",12,14,1,790.30000000447,FALSE,"English"
"2115","55ae6a39fdf99b44a305f1eb",210,"blues",11,13,1,773.70000000298,TRUE,"English"
"2123","55ae6a39fdf99b44a305f1eb",211,"blues",12,10,1,823,TRUE,"English"
"2133","55ae6a39fdf99b44a305f1eb",212,"blues",13,15,1,1201.40000000596,FALSE,"English"
"2143","55ae6a39fdf99b44a305f1eb",213,"browns",9,11,1,810.79999999702,TRUE,"English"
"2153","55ae6a39fdf99b44a305f1eb",214,"yellows",6,8,1,1311.39999999851,TRUE,"English"
"2163","55ae6a39fdf99b44a305f1eb",215,"browns",14,16,1,1563,FALSE,"English"
"2173","55ae6a39fdf99b44a305f1eb",216,"reds",1,3,1,1432.79999999702,FALSE,"English"
"2183","55ae6a39fdf99b44a305f1eb",217,"reds",3,5,1,964.90000000596,FALSE,"English"
"2193","55ae6a39fdf99b44a305f1eb",218,"reds",5,7,1,1450.10000000149,FALSE,"English"
"2203","55ae6a39fdf99b44a305f1eb",219,"yellows",15,17,1,1273,FALSE,"English"
"2215","55ae6a39fdf99b44a305f1eb",220,"reds",19,17,0,2695.89999999851,FALSE,"English"
"2223","55ae6a39fdf99b44a305f1eb",221,"blues",8,6,1,1003.39999999851,FALSE,"English"
"2233","55ae6a39fdf99b44a305f1eb",222,"yellows",4,2,1,867,FALSE,"English"
"2243","55ae6a39fdf99b44a305f1eb",223,"browns",11,13,0,1088.69999999553,TRUE,"English"
"2253","55ae6a39fdf99b44a305f1eb",224,"browns",6,8,1,1156.60000000149,FALSE,"English"
"2263","55ae6a39fdf99b44a305f1eb",225,"blues",10,8,1,1639.20000000298,FALSE,"English"
"2273","55ae6a39fdf99b44a305f1eb",226,"blues",17,15,1,849.90000000596,FALSE,"English"
"2283","55ae6a39fdf99b44a305f1eb",227,"blues",11,9,1,2316.20000000298,TRUE,"English"
"2293","55ae6a39fdf99b44a305f1eb",228,"reds",6,8,0,1664.10000000149,FALSE,"English"
"2303","55ae6a39fdf99b44a305f1eb",229,"reds",13,11,1,989.39999999851,TRUE,"English"
"2315","55ae6a39fdf99b44a305f1eb",230,"yellows",14,12,1,1434.10000000149,FALSE,"English"
"2323","55ae6a39fdf99b44a305f1eb",231,"blues",7,5,1,1103.70000000298,FALSE,"English"
"2333","55ae6a39fdf99b44a305f1eb",232,"blues",16,18,1,1925.60000000149,FALSE,"English"
"2343","55ae6a39fdf99b44a305f1eb",233,"blues",5,3,1,1003.80000000447,FALSE,"English"
"2353","55ae6a39fdf99b44a305f1eb",234,"browns",2,4,1,1270.90000000596,FALSE,"English"
"2363","55ae6a39fdf99b44a305f1eb",235,"reds",15,17,0,1568.70000000298,FALSE,"English"
"2373","55ae6a39fdf99b44a305f1eb",236,"reds",11,9,1,1766,FALSE,"English"
"2383","55ae6a39fdf99b44a305f1eb",237,"yellows",5,7,1,1973.30000000447,FALSE,"English"
"2393","55ae6a39fdf99b44a305f1eb",238,"browns",18,20,1,2328.69999999553,FALSE,"English"
"2403","55ae6a39fdf99b44a305f1eb",239,"reds",8,10,1,1024.39999999851,FALSE,"English"
"2415","55ae6a39fdf99b44a305f1eb",240,"reds",16,18,0,1785.5,FALSE,"English"
"2423","55ae6a39fdf99b44a305f1eb",241,"blues",17,19,0,934,FALSE,"English"
"2433","55ae6a39fdf99b44a305f1eb",242,"reds",15,17,0,1253.10000000149,FALSE,"English"
"2443","55ae6a39fdf99b44a305f1eb",243,"yellows",1,3,1,1156.20000000298,FALSE,"English"
"2453","55ae6a39fdf99b44a305f1eb",244,"browns",7,9,1,1159.30000000447,FALSE,"English"
"2463","55ae6a39fdf99b44a305f1eb",245,"browns",5,3,1,697.10000000149,FALSE,"English"
"2473","55ae6a39fdf99b44a305f1eb",246,"blues",7,5,1,802.10000000149,FALSE,"English"
"2483","55ae6a39fdf99b44a305f1eb",247,"reds",1,3,1,2036.30000000447,FALSE,"English"
"2493","55ae6a39fdf99b44a305f1eb",248,"blues",18,20,0,902.39999999851,FALSE,"English"
"2503","55ae6a39fdf99b44a305f1eb",249,"reds",16,14,0,1086.5,FALSE,"English"
"2514","55ae6a39fdf99b44a305f1eb",250,"reds",6,4,1,1031.20000000298,FALSE,"English"
"2523","55ae6a39fdf99b44a305f1eb",251,"yellows",13,11,1,1654.10000000149,FALSE,"English"
"2533","55ae6a39fdf99b44a305f1eb",252,"blues",15,17,1,992.69999999553,FALSE,"English"
"2543","55ae6a39fdf99b44a305f1eb",253,"reds",12,14,1,1957.89999999851,TRUE,"English"
"2553","55ae6a39fdf99b44a305f1eb",254,"reds",14,16,0,874.89999999851,FALSE,"English"
"2563","55ae6a39fdf99b44a305f1eb",255,"browns",17,19,1,1364.89999999851,FALSE,"English"
"2573","55ae6a39fdf99b44a305f1eb",256,"yellows",5,3,1,829.90000000596,FALSE,"English"
"2583","55ae6a39fdf99b44a305f1eb",257,"browns",14,16,1,1211.30000000447,FALSE,"English"
"2603","55ae6a39fdf99b44a305f1eb",259,"blues",17,15,1,1620.5,FALSE,"English"
"2615","55ae6a39fdf99b44a305f1eb",260,"blues",3,5,1,997.79999999702,FALSE,"English"
"2623","55ae6a39fdf99b44a305f1eb",261,"blues",14,12,1,815.09999999404,FALSE,"English"
"2633","55ae6a39fdf99b44a305f1eb",262,"yellows",20,18,1,1073.20000000298,FALSE,"English"
"2643","55ae6a39fdf99b44a305f1eb",263,"browns",4,2,1,841,FALSE,"English"
"2653","55ae6a39fdf99b44a305f1eb",264,"blues",16,14,1,912,FALSE,"English"
"2663","55ae6a39fdf99b44a305f1eb",265,"yellows",17,19,1,946.10000000149,FALSE,"English"
"2673","55ae6a39fdf99b44a305f1eb",266,"browns",10,8,1,835.90000000596,TRUE,"English"
"2683","55ae6a39fdf99b44a305f1eb",267,"browns",16,14,1,1040.89999999851,FALSE,"English"
"2693","55ae6a39fdf99b44a305f1eb",268,"yellows",12,10,1,946,FALSE,"English"
"2703","55ae6a39fdf99b44a305f1eb",269,"yellows",8,10,1,1832.30000000447,TRUE,"English"
"2715","55ae6a39fdf99b44a305f1eb",270,"browns",13,15,0,786.5,FALSE,"English"
"2723","55ae6a39fdf99b44a305f1eb",271,"yellows",12,14,1,2333.69999999553,FALSE,"English"
"2733","55ae6a39fdf99b44a305f1eb",272,"blues",9,7,1,801.5,FALSE,"English"
"2743","55ae6a39fdf99b44a305f1eb",273,"browns",7,5,1,1150.70000000298,FALSE,"English"
"2753","55ae6a39fdf99b44a305f1eb",274,"browns",19,17,1,1259.39999999851,FALSE,"English"
"2763","55ae6a39fdf99b44a305f1eb",275,"yellows",13,15,1,1608.30000000447,FALSE,"English"
"2773","55ae6a39fdf99b44a305f1eb",276,"reds",15,13,1,2267.29999999702,FALSE,"English"
"2783","55ae6a39fdf99b44a305f1eb",277,"blues",13,11,1,2031.79999999702,TRUE,"English"
"2793","55ae6a39fdf99b44a305f1eb",278,"reds",18,20,0,2198.89999999851,FALSE,"English"
"2803","55ae6a39fdf99b44a305f1eb",279,"reds",6,4,1,879.10000000149,FALSE,"English"
"2815","55ae6a39fdf99b44a305f1eb",280,"yellows",8,10,1,1936.79999999702,TRUE,"English"
"2823","55ae6a39fdf99b44a305f1eb",281,"blues",20,18,0,1052.60000000149,FALSE,"English"
"2833","55ae6a39fdf99b44a305f1eb",282,"browns",17,19,1,2338,FALSE,"English"
"2843","55ae6a39fdf99b44a305f1eb",283,"reds",17,15,1,1729.19999999553,FALSE,"English"
"2853","55ae6a39fdf99b44a305f1eb",284,"yellows",3,1,1,1773.89999999851,FALSE,"English"
"2863","55ae6a39fdf99b44a305f1eb",285,"blues",9,7,1,1234.79999999702,FALSE,"English"
"2873","55ae6a39fdf99b44a305f1eb",286,"blues",6,4,1,2974.19999999553,FALSE,"English"
"2883","55ae6a39fdf99b44a305f1eb",287,"browns",8,10,1,1041.5,TRUE,"English"
"2893","55ae6a39fdf99b44a305f1eb",288,"browns",2,4,1,830.79999999702,FALSE,"English"
"2903","55ae6a39fdf99b44a305f1eb",289,"blues",3,5,1,871.60000000149,FALSE,"English"
"2914","55ae6a39fdf99b44a305f1eb",290,"reds",4,6,1,1097.5,FALSE,"English"
"2923","55ae6a39fdf99b44a305f1eb",291,"browns",3,5,1,948.89999999851,FALSE,"English"
"2933","55ae6a39fdf99b44a305f1eb",292,"browns",1,3,1,817.60000000149,FALSE,"English"
"2943","55ae6a39fdf99b44a305f1eb",293,"browns",3,1,1,863.5,FALSE,"English"
"2953","55ae6a39fdf99b44a305f1eb",294,"browns",12,10,0,1001.10000000149,TRUE,"English"
"2963","55ae6a39fdf99b44a305f1eb",295,"yellows",9,7,1,2065.5,TRUE,"English"
"2973","55ae6a39fdf99b44a305f1eb",296,"browns",6,4,1,1093.69999999553,FALSE,"English"
"2983","55ae6a39fdf99b44a305f1eb",297,"browns",11,13,1,1935.20000000298,TRUE,"English"
"627","56ec2213388e1d000a5960c2",5,"yellows",4,2,0,1155.09999999404,FALSE,"English"
"727","56ec2213388e1d000a5960c2",6,"reds",4,6,1,1310.39999997616,FALSE,"English"
"827","56ec2213388e1d000a5960c2",7,"blues",12,10,1,890.300000011921,FALSE,"English"
"927","56ec2213388e1d000a5960c2",8,"yellows",7,5,1,907.90000000596,FALSE,"English"
"1020","56ec2213388e1d000a5960c2",9,"yellows",18,16,1,891.40000000596,FALSE,"English"
"1127","56ec2213388e1d000a5960c2",10,"yellows",13,15,0,1424.19999998808,FALSE,"English"
"1227","56ec2213388e1d000a5960c2",11,"reds",3,5,1,1305.5,FALSE,"English"
"1327","56ec2213388e1d000a5960c2",12,"browns",7,9,1,1102.40000000596,FALSE,"English"
"1427","56ec2213388e1d000a5960c2",13,"reds",11,13,1,1565.09999999404,TRUE,"English"
"1520","56ec2213388e1d000a5960c2",14,"browns",9,11,0,1481.60000002384,FALSE,"English"
"1627","56ec2213388e1d000a5960c2",15,"blues",12,14,1,1251,FALSE,"English"
"1727","56ec2213388e1d000a5960c2",16,"blues",8,6,1,1174,FALSE,"English"
"1827","56ec2213388e1d000a5960c2",17,"blues",11,9,1,1034.39999997616,FALSE,"English"
"1927","56ec2213388e1d000a5960c2",18,"blues",16,18,0,1508.79999998212,FALSE,"English"
"2020","56ec2213388e1d000a5960c2",19,"browns",1,3,1,1262,FALSE,"English"
"2127","56ec2213388e1d000a5960c2",20,"yellows",9,11,0,1125.5,FALSE,"English"
"2227","56ec2213388e1d000a5960c2",21,"browns",17,19,0,1062.29999998212,FALSE,"English"
"2327","56ec2213388e1d000a5960c2",22,"browns",13,15,1,1297.30000001192,TRUE,"English"
"2427","56ec2213388e1d000a5960c2",23,"yellows",12,10,1,1028.5,FALSE,"English"
"2520","56ec2213388e1d000a5960c2",24,"yellows",4,6,1,1629,FALSE,"English"
"2627","56ec2213388e1d000a5960c2",25,"yellows",11,13,0,1327.09999999404,TRUE,"English"
"2727","56ec2213388e1d000a5960c2",26,"yellows",2,4,1,1429.70000001788,FALSE,"English"
"2827","56ec2213388e1d000a5960c2",27,"blues",7,9,1,1316.79999998212,FALSE,"English"
"2920","56ec2213388e1d000a5960c2",28,"blues",11,13,1,1226.19999998808,FALSE,"English"
"307","56ec2213388e1d000a5960c2",29,"blues",20,18,1,1134.40000000596,FALSE,"English"
"317","56ec2213388e1d000a5960c2",30,"browns",14,16,1,1251.30000001192,TRUE,"English"
"327","56ec2213388e1d000a5960c2",31,"reds",15,13,1,1094.19999998808,FALSE,"English"
"337","56ec2213388e1d000a5960c2",32,"yellows",2,4,0,1393.5,FALSE,"English"
"347","56ec2213388e1d000a5960c2",33,"browns",17,15,1,926.800000011921,FALSE,"English"
"357","56ec2213388e1d000a5960c2",34,"browns",11,9,1,740.699999988079,FALSE,"English"
"367","56ec2213388e1d000a5960c2",35,"reds",9,7,1,792.5,FALSE,"English"
"377","56ec2213388e1d000a5960c2",36,"yellows",13,11,1,754.90000000596,TRUE,"English"
"387","56ec2213388e1d000a5960c2",37,"browns",6,4,1,693,FALSE,"English"
"397","56ec2213388e1d000a5960c2",38,"reds",11,9,1,766.40000000596,TRUE,"English"
"407","56ec2213388e1d000a5960c2",39,"blues",7,9,1,1055.5,FALSE,"English"
"417","56ec2213388e1d000a5960c2",40,"browns",10,12,1,878.799999982119,FALSE,"English"
"427","56ec2213388e1d000a5960c2",41,"yellows",7,9,1,1187.70000001788,FALSE,"English"
"437","56ec2213388e1d000a5960c2",42,"browns",8,10,1,958.09999999404,FALSE,"English"
"447","56ec2213388e1d000a5960c2",43,"blues",5,7,1,887.699999988079,FALSE,"English"
"457","56ec2213388e1d000a5960c2",44,"yellows",19,17,1,759.40000000596,FALSE,"English"
"467","56ec2213388e1d000a5960c2",45,"blues",3,5,1,727.09999999404,FALSE,"English"
"477","56ec2213388e1d000a5960c2",46,"yellows",20,18,1,668.800000011921,FALSE,"English"
"487","56ec2213388e1d000a5960c2",47,"yellows",8,10,0,740.90000000596,FALSE,"English"
"497","56ec2213388e1d000a5960c2",48,"reds",13,11,1,1326.70000001788,TRUE,"English"
"507","56ec2213388e1d000a5960c2",49,"blues",6,8,1,914.299999982119,FALSE,"English"
"517","56ec2213388e1d000a5960c2",50,"browns",7,5,1,710.40000000596,FALSE,"English"
"527","56ec2213388e1d000a5960c2",51,"reds",7,9,1,793.40000000596,FALSE,"English"
"537","56ec2213388e1d000a5960c2",52,"reds",15,13,1,728.799999982119,FALSE,"English"
"547","56ec2213388e1d000a5960c2",53,"reds",15,17,1,808.199999988079,FALSE,"English"
"567","56ec2213388e1d000a5960c2",55,"reds",18,20,1,1401.5,FALSE,"English"
"577","56ec2213388e1d000a5960c2",56,"reds",18,16,1,1939.19999998808,FALSE,"English"
"587","56ec2213388e1d000a5960c2",57,"browns",3,1,1,1568.5,FALSE,"English"
"597","56ec2213388e1d000a5960c2",58,"reds",1,3,1,2470.59999999404,FALSE,"English"
"607","56ec2213388e1d000a5960c2",59,"browns",6,8,1,742,FALSE,"English"
"6111","56ec2213388e1d000a5960c2",60,"reds",10,8,1,1044.59999999404,FALSE,"English"
"628","56ec2213388e1d000a5960c2",61,"browns",15,17,1,1355.30000001192,FALSE,"English"
"637","56ec2213388e1d000a5960c2",62,"blues",10,8,1,936.699999988079,FALSE,"English"
"647","56ec2213388e1d000a5960c2",63,"reds",5,3,1,891.59999999404,FALSE,"English"
"657","56ec2213388e1d000a5960c2",64,"reds",2,4,1,864.699999988079,FALSE,"English"
"667","56ec2213388e1d000a5960c2",65,"blues",10,12,1,872.5,FALSE,"English"
"677","56ec2213388e1d000a5960c2",66,"browns",6,4,1,735.800000011921,FALSE,"English"
"687","56ec2213388e1d000a5960c2",67,"reds",7,5,1,740.5,FALSE,"English"
"697","56ec2213388e1d000a5960c2",68,"blues",4,2,1,744.699999988079,FALSE,"English"
"707","56ec2213388e1d000a5960c2",69,"yellows",9,11,1,733.300000011921,FALSE,"English"
"7111","56ec2213388e1d000a5960c2",70,"blues",13,15,1,1774.59999999404,TRUE,"English"
"728","56ec2213388e1d000a5960c2",71,"blues",12,10,1,1001.59999999404,FALSE,"English"
"737","56ec2213388e1d000a5960c2",72,"browns",14,16,1,1114.09999999404,TRUE,"English"
"747","56ec2213388e1d000a5960c2",73,"blues",16,14,1,1093.09999999404,TRUE,"English"
"757","56ec2213388e1d000a5960c2",74,"blues",17,15,1,889.600000023842,FALSE,"English"
"767","56ec2213388e1d000a5960c2",75,"reds",4,2,1,820.90000000596,FALSE,"English"
"777","56ec2213388e1d000a5960c2",76,"browns",4,6,1,816.40000000596,FALSE,"English"
"787","56ec2213388e1d000a5960c2",77,"blues",14,12,1,725.899999976158,FALSE,"English"
"797","56ec2213388e1d000a5960c2",78,"blues",3,5,1,779.800000011921,FALSE,"English"
"807","56ec2213388e1d000a5960c2",79,"reds",14,16,0,2796.5,FALSE,"English"
"8111","56ec2213388e1d000a5960c2",80,"yellows",12,10,1,818.300000011921,FALSE,"English"
"828","56ec2213388e1d000a5960c2",81,"yellows",7,5,1,1635.30000001192,FALSE,"English"
"837","56ec2213388e1d000a5960c2",82,"reds",12,14,0,1970.79999998212,FALSE,"English"
"847","56ec2213388e1d000a5960c2",83,"blues",9,11,1,1126.69999998808,FALSE,"English"
"857","56ec2213388e1d000a5960c2",84,"blues",15,17,1,1375.90000000596,FALSE,"English"
"867","56ec2213388e1d000a5960c2",85,"yellows",10,8,1,731.40000000596,FALSE,"English"
"877","56ec2213388e1d000a5960c2",86,"blues",18,20,1,1643.89999997616,FALSE,"English"
"887","56ec2213388e1d000a5960c2",87,"reds",4,2,1,1505.40000000596,FALSE,"English"
"897","56ec2213388e1d000a5960c2",88,"reds",16,14,1,906.5,FALSE,"English"
"907","56ec2213388e1d000a5960c2",89,"reds",13,11,1,1310.5,TRUE,"English"
"9111","56ec2213388e1d000a5960c2",90,"browns",14,12,1,946.399999976158,TRUE,"English"
"928","56ec2213388e1d000a5960c2",91,"blues",3,1,1,819.5,FALSE,"English"
"937","56ec2213388e1d000a5960c2",92,"browns",17,15,1,802.600000023842,FALSE,"English"
"947","56ec2213388e1d000a5960c2",93,"reds",3,5,1,972.40000000596,FALSE,"English"
"957","56ec2213388e1d000a5960c2",94,"yellows",15,17,1,1895,FALSE,"English"
"967","56ec2213388e1d000a5960c2",95,"reds",3,1,1,2408.30000001192,FALSE,"English"
"977","56ec2213388e1d000a5960c2",96,"blues",18,16,1,1352.69999998808,FALSE,"English"
"987","56ec2213388e1d000a5960c2",97,"yellows",17,15,1,650.199999988079,FALSE,"English"
"997","56ec2213388e1d000a5960c2",98,"yellows",3,1,1,2160.40000000596,FALSE,"English"
"1007","56ec2213388e1d000a5960c2",99,"browns",3,1,1,662.600000023842,FALSE,"English"
"10111","56ec2213388e1d000a5960c2",100,"yellows",10,12,1,1523.10000002384,FALSE,"English"
"1027","56ec2213388e1d000a5960c2",101,"yellows",14,16,1,1354.30000001192,FALSE,"English"
"1037","56ec2213388e1d000a5960c2",102,"browns",8,10,1,855,FALSE,"English"
"1047","56ec2213388e1d000a5960c2",103,"yellows",1,3,1,2286.5,FALSE,"English"
"1057","56ec2213388e1d000a5960c2",104,"yellows",11,9,1,633.699999988079,FALSE,"English"
"1077","56ec2213388e1d000a5960c2",106,"yellows",3,5,0,1960.5,FALSE,"English"
"1087","56ec2213388e1d000a5960c2",107,"blues",14,16,1,1298.90000000596,TRUE,"English"
"1097","56ec2213388e1d000a5960c2",108,"reds",20,18,1,2395.59999999404,FALSE,"English"
"1107","56ec2213388e1d000a5960c2",109,"browns",10,12,1,1038.90000000596,FALSE,"English"
"11111","56ec2213388e1d000a5960c2",110,"blues",4,6,1,916.09999999404,FALSE,"English"
"1128","56ec2213388e1d000a5960c2",111,"reds",13,15,0,1115.80000001192,FALSE,"English"
"1137","56ec2213388e1d000a5960c2",112,"yellows",6,4,1,1108.5,FALSE,"English"
"1147","56ec2213388e1d000a5960c2",113,"reds",18,16,1,1565.5,FALSE,"English"
"1157","56ec2213388e1d000a5960c2",114,"blues",6,4,1,1868,FALSE,"English"
"1167","56ec2213388e1d000a5960c2",115,"yellows",8,10,1,1409.5,FALSE,"English"
"1177","56ec2213388e1d000a5960c2",116,"browns",16,14,1,1265.40000000596,TRUE,"English"
"1187","56ec2213388e1d000a5960c2",117,"reds",8,6,1,1229.59999999404,FALSE,"English"
"1197","56ec2213388e1d000a5960c2",118,"browns",10,8,1,940.699999988079,FALSE,"English"
"1207","56ec2213388e1d000a5960c2",119,"browns",19,17,1,869.90000000596,FALSE,"English"
"12111","56ec2213388e1d000a5960c2",120,"browns",3,5,1,892.600000023842,FALSE,"English"
"1228","56ec2213388e1d000a5960c2",121,"yellows",9,7,1,857.90000000596,FALSE,"English"
"1237","56ec2213388e1d000a5960c2",122,"reds",17,15,1,1116,FALSE,"English"
"1247","56ec2213388e1d000a5960c2",123,"reds",6,4,1,1047.29999998212,FALSE,"English"
"1257","56ec2213388e1d000a5960c2",124,"reds",5,7,1,1681.59999999404,FALSE,"English"
"1267","56ec2213388e1d000a5960c2",125,"blues",17,19,1,1216,FALSE,"English"
"1277","56ec2213388e1d000a5960c2",126,"yellows",13,11,1,934.299999982119,TRUE,"English"
"1287","56ec2213388e1d000a5960c2",127,"yellows",14,12,1,831.399999976158,TRUE,"English"
"1297","56ec2213388e1d000a5960c2",128,"browns",4,2,1,854.800000011921,FALSE,"English"
"1307","56ec2213388e1d000a5960c2",129,"reds",8,6,1,2195.29999998212,FALSE,"English"
"13111","56ec2213388e1d000a5960c2",130,"reds",13,15,1,2020.19999998808,FALSE,"English"
"1328","56ec2213388e1d000a5960c2",131,"reds",8,10,1,1718.19999998808,FALSE,"English"
"1337","56ec2213388e1d000a5960c2",132,"yellows",15,13,1,898.09999999404,FALSE,"English"
"1347","56ec2213388e1d000a5960c2",133,"browns",2,4,1,973.200000017881,FALSE,"English"
"1357","56ec2213388e1d000a5960c2",134,"browns",16,14,1,1079.09999999404,TRUE,"English"
"1367","56ec2213388e1d000a5960c2",135,"browns",16,18,1,1067.40000000596,FALSE,"English"
"1377","56ec2213388e1d000a5960c2",136,"browns",12,14,1,1001.59999999404,TRUE,"English"
"1387","56ec2213388e1d000a5960c2",137,"reds",6,4,1,1019.40000000596,FALSE,"English"
"1397","56ec2213388e1d000a5960c2",138,"blues",5,3,1,973.800000011921,FALSE,"English"
"1407","56ec2213388e1d000a5960c2",139,"reds",20,18,1,2023.90000000596,FALSE,"English"
"14111","56ec2213388e1d000a5960c2",140,"reds",18,20,0,1213.69999998808,FALSE,"English"
"1428","56ec2213388e1d000a5960c2",141,"yellows",5,3,1,1747,FALSE,"English"
"1437","56ec2213388e1d000a5960c2",142,"blues",4,6,1,924.300000011921,FALSE,"English"
"1447","56ec2213388e1d000a5960c2",143,"browns",9,7,1,1257.30000001192,FALSE,"English"
"1457","56ec2213388e1d000a5960c2",144,"blues",9,7,1,1070.19999998808,FALSE,"English"
"1467","56ec2213388e1d000a5960c2",145,"reds",12,10,1,1324.39999997616,TRUE,"English"
"1477","56ec2213388e1d000a5960c2",146,"reds",3,1,1,2884.09999999404,FALSE,"English"
"1487","56ec2213388e1d000a5960c2",147,"browns",5,7,1,790.90000000596,FALSE,"English"
"1497","56ec2213388e1d000a5960c2",148,"browns",4,2,1,758.90000000596,FALSE,"English"
"1507","56ec2213388e1d000a5960c2",149,"yellows",11,13,0,722.09999999404,TRUE,"English"
"15111","56ec2213388e1d000a5960c2",150,"blues",17,15,0,1233.09999999404,FALSE,"English"
"1527","56ec2213388e1d000a5960c2",151,"browns",9,11,1,903.799999982119,FALSE,"English"
"1537","56ec2213388e1d000a5960c2",152,"reds",12,10,1,1555.09999999404,TRUE,"English"
"1547","56ec2213388e1d000a5960c2",153,"browns",14,12,1,698.40000000596,TRUE,"English"
"1557","56ec2213388e1d000a5960c2",154,"blues",8,10,1,1203.09999999404,FALSE,"English"
"1567","56ec2213388e1d000a5960c2",155,"reds",7,9,1,770.90000000596,FALSE,"English"
"1587","56ec2213388e1d000a5960c2",157,"browns",16,18,1,925.59999999404,FALSE,"English"
"1597","56ec2213388e1d000a5960c2",158,"reds",10,8,1,948.300000011921,FALSE,"English"
"1607","56ec2213388e1d000a5960c2",159,"yellows",18,16,1,874.59999999404,FALSE,"English"
"16111","56ec2213388e1d000a5960c2",160,"browns",8,6,1,1225,FALSE,"English"
"1628","56ec2213388e1d000a5960c2",161,"browns",15,17,1,1066.69999998808,FALSE,"English"
"1637","56ec2213388e1d000a5960c2",162,"reds",16,18,1,3138.69999998808,FALSE,"English"
"1647","56ec2213388e1d000a5960c2",163,"blues",11,13,1,1034.60000002384,FALSE,"English"
"1657","56ec2213388e1d000a5960c2",164,"blues",7,5,1,1722.59999999404,FALSE,"English"
"1667","56ec2213388e1d000a5960c2",165,"reds",14,12,0,1892.19999998808,FALSE,"English"
"1677","56ec2213388e1d000a5960c2",166,"blues",13,15,1,1426.69999998808,TRUE,"English"
"1687","56ec2213388e1d000a5960c2",167,"reds",4,6,1,914,FALSE,"English"
"1697","56ec2213388e1d000a5960c2",168,"blues",19,17,1,1238.19999998808,FALSE,"English"
"1707","56ec2213388e1d000a5960c2",169,"blues",13,11,1,896.899999976158,FALSE,"English"
"17111","56ec2213388e1d000a5960c2",170,"browns",13,11,1,967.59999999404,TRUE,"English"
"1728","56ec2213388e1d000a5960c2",171,"blues",7,5,1,869.800000011921,FALSE,"English"
"1737","56ec2213388e1d000a5960c2",172,"browns",18,16,1,898.200000017881,FALSE,"English"
"1747","56ec2213388e1d000a5960c2",173,"browns",12,10,1,760.700000017881,FALSE,"English"
"1757","56ec2213388e1d000a5960c2",174,"reds",19,17,0,1453.40000000596,FALSE,"English"
"1767","56ec2213388e1d000a5960c2",175,"browns",12,14,1,1001.19999998808,TRUE,"English"
"1777","56ec2213388e1d000a5960c2",176,"yellows",17,19,1,2601.40000000596,FALSE,"English"
"1787","56ec2213388e1d000a5960c2",177,"blues",18,16,0,848.300000011921,FALSE,"English"
"1797","56ec2213388e1d000a5960c2",178,"blues",17,19,1,1570.30000001192,FALSE,"English"
"1807","56ec2213388e1d000a5960c2",179,"blues",1,3,1,998.300000011921,FALSE,"English"
"18111","56ec2213388e1d000a5960c2",180,"reds",11,13,1,1644.40000000596,TRUE,"English"
"1828","56ec2213388e1d000a5960c2",181,"yellows",3,5,0,1478.5,FALSE,"English"
"1837","56ec2213388e1d000a5960c2",182,"browns",9,7,1,880.90000000596,FALSE,"English"
"1847","56ec2213388e1d000a5960c2",183,"blues",5,7,1,836.700000017881,FALSE,"English"
"1857","56ec2213388e1d000a5960c2",184,"browns",5,3,1,696.899999976158,FALSE,"English"
"1867","56ec2213388e1d000a5960c2",185,"browns",20,18,1,655.700000017881,FALSE,"English"
"1877","56ec2213388e1d000a5960c2",186,"yellows",6,8,1,1015.69999998808,FALSE,"English"
"1887","56ec2213388e1d000a5960c2",187,"yellows",18,20,1,1076.90000000596,FALSE,"English"
"1897","56ec2213388e1d000a5960c2",188,"reds",17,19,0,2611.70000001788,FALSE,"English"
"1907","56ec2213388e1d000a5960c2",189,"reds",1,3,1,1140.79999998212,FALSE,"English"
"19111","56ec2213388e1d000a5960c2",190,"blues",15,13,1,1092,TRUE,"English"
"1928","56ec2213388e1d000a5960c2",191,"reds",9,7,1,1011,FALSE,"English"
"1937","56ec2213388e1d000a5960c2",192,"browns",17,19,1,886.700000017881,FALSE,"English"
"1947","56ec2213388e1d000a5960c2",193,"reds",12,14,1,1582.59999999404,FALSE,"English"
"1957","56ec2213388e1d000a5960c2",194,"yellows",15,13,1,703.300000011921,FALSE,"English"
"1967","56ec2213388e1d000a5960c2",195,"blues",16,18,1,2861.40000000596,FALSE,"English"
"1977","56ec2213388e1d000a5960c2",196,"browns",8,6,1,997.800000011921,FALSE,"English"
"1987","56ec2213388e1d000a5960c2",197,"yellows",12,14,0,822.200000017881,TRUE,"English"
"1997","56ec2213388e1d000a5960c2",198,"yellows",19,17,1,742.59999999404,FALSE,"English"
"2007","56ec2213388e1d000a5960c2",199,"reds",14,16,1,2985.19999998808,FALSE,"English"
"20111","56ec2213388e1d000a5960c2",200,"reds",8,10,1,848.800000011921,FALSE,"English"
"2027","56ec2213388e1d000a5960c2",201,"yellows",15,17,0,1041.90000000596,FALSE,"English"
"2037","56ec2213388e1d000a5960c2",202,"reds",17,19,1,2975.90000000596,FALSE,"English"
"2047","56ec2213388e1d000a5960c2",203,"yellows",13,15,1,1500.5,FALSE,"English"
"2057","56ec2213388e1d000a5960c2",204,"browns",18,20,1,1029.5,FALSE,"English"
"2067","56ec2213388e1d000a5960c2",205,"reds",5,3,1,914.199999988079,FALSE,"English"
"2077","56ec2213388e1d000a5960c2",206,"blues",10,8,1,914,FALSE,"English"
"2097","56ec2213388e1d000a5960c2",208,"yellows",3,1,1,2323.19999998808,FALSE,"English"
"2107","56ec2213388e1d000a5960c2",209,"yellows",17,19,1,994.200000017881,FALSE,"English"
"21111","56ec2213388e1d000a5960c2",210,"reds",6,8,1,1184.09999999404,FALSE,"English"
"2128","56ec2213388e1d000a5960c2",211,"yellows",16,18,1,1868.80000001192,FALSE,"English"
"2137","56ec2213388e1d000a5960c2",212,"reds",11,9,1,1514.40000000596,TRUE,"English"
"2147","56ec2213388e1d000a5960c2",213,"blues",14,12,1,2031.59999999404,FALSE,"English"
"2157","56ec2213388e1d000a5960c2",214,"reds",16,18,0,1137.19999998808,FALSE,"English"
"2167","56ec2213388e1d000a5960c2",215,"browns",11,13,1,967.5,TRUE,"English"
"2177","56ec2213388e1d000a5960c2",216,"reds",14,12,1,933,FALSE,"English"
"2187","56ec2213388e1d000a5960c2",217,"blues",9,7,1,959.59999999404,FALSE,"English"
"2197","56ec2213388e1d000a5960c2",218,"browns",10,8,1,897.700000017881,FALSE,"English"
"2207","56ec2213388e1d000a5960c2",219,"browns",20,18,1,774.800000011921,FALSE,"English"
"22111","56ec2213388e1d000a5960c2",220,"browns",15,13,1,644.200000017881,TRUE,"English"
"2228","56ec2213388e1d000a5960c2",221,"yellows",16,18,0,673.699999988079,FALSE,"English"
"2237","56ec2213388e1d000a5960c2",222,"blues",2,4,1,720.299999982119,FALSE,"English"
"2247","56ec2213388e1d000a5960c2",223,"yellows",17,15,1,609.700000017881,FALSE,"English"
"2257","56ec2213388e1d000a5960c2",224,"yellows",5,7,0,737.300000011921,FALSE,"English"
"2267","56ec2213388e1d000a5960c2",225,"blues",1,3,1,713,FALSE,"English"
"2277","56ec2213388e1d000a5960c2",226,"browns",15,13,1,661.700000017881,TRUE,"English"
"2287","56ec2213388e1d000a5960c2",227,"blues",2,4,1,688.5,FALSE,"English"
"2297","56ec2213388e1d000a5960c2",228,"yellows",8,6,1,711.5,FALSE,"English"
"2307","56ec2213388e1d000a5960c2",229,"browns",13,11,0,820.700000017881,TRUE,"English"
"23111","56ec2213388e1d000a5960c2",230,"browns",3,5,1,1414.29999998212,FALSE,"English"
"2328","56ec2213388e1d000a5960c2",231,"browns",11,9,1,748.800000011921,FALSE,"English"
"2337","56ec2213388e1d000a5960c2",232,"yellows",8,6,1,1751.59999999404,FALSE,"English"
"2347","56ec2213388e1d000a5960c2",233,"yellows",5,7,1,1062.19999998808,FALSE,"English"
"2357","56ec2213388e1d000a5960c2",234,"browns",5,3,1,1222.30000001192,FALSE,"English"
"2367","56ec2213388e1d000a5960c2",235,"browns",18,16,1,643.40000000596,FALSE,"English"
"2377","56ec2213388e1d000a5960c2",236,"blues",15,13,0,1067,TRUE,"English"
"2387","56ec2213388e1d000a5960c2",237,"blues",5,3,1,738.199999988079,FALSE,"English"
"2397","56ec2213388e1d000a5960c2",238,"yellows",10,12,1,1364.30000001192,FALSE,"English"
"2407","56ec2213388e1d000a5960c2",239,"browns",7,5,1,903.700000017881,FALSE,"English"
"24111","56ec2213388e1d000a5960c2",240,"yellows",4,6,0,788.59999999404,FALSE,"English"
"2428","56ec2213388e1d000a5960c2",241,"blues",6,8,1,713,FALSE,"English"
"2437","56ec2213388e1d000a5960c2",242,"blues",3,1,1,704.40000000596,FALSE,"English"
"2447","56ec2213388e1d000a5960c2",243,"yellows",14,12,1,755.90000000596,TRUE,"English"
"2457","56ec2213388e1d000a5960c2",244,"yellows",9,7,1,723.200000017881,FALSE,"English"
"2467","56ec2213388e1d000a5960c2",245,"blues",6,4,1,738.59999999404,FALSE,"English"
"2477","56ec2213388e1d000a5960c2",246,"reds",15,17,1,1510.59999999404,FALSE,"English"
"2487","56ec2213388e1d000a5960c2",247,"yellows",11,9,1,628.300000011921,FALSE,"English"
"2497","56ec2213388e1d000a5960c2",248,"yellows",6,8,1,816,FALSE,"English"
"2507","56ec2213388e1d000a5960c2",249,"browns",7,9,1,682.800000011921,FALSE,"English"
"25111","56ec2213388e1d000a5960c2",250,"yellows",7,9,1,746.59999999404,FALSE,"English"
"2527","56ec2213388e1d000a5960c2",251,"reds",2,4,1,797.5,FALSE,"English"
"2537","56ec2213388e1d000a5960c2",252,"yellows",16,14,1,823.300000011921,FALSE,"English"
"2547","56ec2213388e1d000a5960c2",253,"blues",12,14,1,1025.5,FALSE,"English"
"2557","56ec2213388e1d000a5960c2",254,"browns",13,15,1,898.200000017881,TRUE,"English"
"2567","56ec2213388e1d000a5960c2",255,"reds",19,17,0,1381.09999999404,FALSE,"English"
"2577","56ec2213388e1d000a5960c2",256,"browns",11,13,1,1268.19999998808,TRUE,"English"
"2587","56ec2213388e1d000a5960c2",257,"reds",9,11,1,738.199999988079,TRUE,"English"
"2607","56ec2213388e1d000a5960c2",259,"yellows",5,3,0,960.59999999404,FALSE,"English"
"26111","56ec2213388e1d000a5960c2",260,"blues",15,17,1,2390.29999998212,FALSE,"English"
"2628","56ec2213388e1d000a5960c2",261,"reds",7,5,1,637.09999999404,FALSE,"English"
"2637","56ec2213388e1d000a5960c2",262,"reds",5,7,1,668.5,FALSE,"English"
"2647","56ec2213388e1d000a5960c2",263,"blues",16,14,1,2193.20000001788,TRUE,"English"
"2657","56ec2213388e1d000a5960c2",264,"blues",18,20,0,2567.5,FALSE,"English"
"2667","56ec2213388e1d000a5960c2",265,"blues",10,12,1,862.09999999404,FALSE,"English"
"2677","56ec2213388e1d000a5960c2",266,"yellows",16,14,1,650.300000011921,FALSE,"English"
"2687","56ec2213388e1d000a5960c2",267,"browns",12,10,1,634.299999982119,FALSE,"English"
"2697","56ec2213388e1d000a5960c2",268,"reds",16,14,1,1431.59999999404,FALSE,"English"
"2707","56ec2213388e1d000a5960c2",269,"browns",6,8,1,825.40000000596,FALSE,"English"
"27111","56ec2213388e1d000a5960c2",270,"blues",13,11,0,1390.69999998808,FALSE,"English"
"2728","56ec2213388e1d000a5960c2",271,"yellows",14,16,0,648.799999982119,FALSE,"English"
"2737","56ec2213388e1d000a5960c2",272,"blues",11,9,1,676.299999982119,FALSE,"English"
"2747","56ec2213388e1d000a5960c2",273,"blues",8,10,1,646.299999982119,FALSE,"English"
"2757","56ec2213388e1d000a5960c2",274,"blues",8,6,1,608.100000023842,FALSE,"English"
"2767","56ec2213388e1d000a5960c2",275,"browns",4,6,1,643.90000000596,FALSE,"English"
"2777","56ec2213388e1d000a5960c2",276,"blues",19,17,0,925.5,FALSE,"English"
"2787","56ec2213388e1d000a5960c2",277,"blues",20,18,0,1090.80000001192,FALSE,"English"
"2797","56ec2213388e1d000a5960c2",278,"browns",5,7,1,680.59999999404,FALSE,"English"
"2807","56ec2213388e1d000a5960c2",279,"yellows",10,8,1,698.90000000596,FALSE,"English"
"28111","56ec2213388e1d000a5960c2",280,"blues",9,11,1,699.90000000596,FALSE,"English"
"2828","56ec2213388e1d000a5960c2",281,"blues",4,2,1,641.59999999404,FALSE,"English"
"2837","56ec2213388e1d000a5960c2",282,"reds",9,11,1,678.40000000596,TRUE,"English"
"2847","56ec2213388e1d000a5960c2",283,"reds",10,12,1,1229.09999999404,TRUE,"English"
"2857","56ec2213388e1d000a5960c2",284,"yellows",6,4,1,762.699999988079,FALSE,"English"
"2867","56ec2213388e1d000a5960c2",285,"yellows",12,14,0,625.199999988079,TRUE,"English"
"2877","56ec2213388e1d000a5960c2",286,"browns",1,3,1,622.899999976158,FALSE,"English"
"2887","56ec2213388e1d000a5960c2",287,"reds",6,8,1,596.5,FALSE,"English"
"2897","56ec2213388e1d000a5960c2",288,"browns",2,4,1,591.90000000596,FALSE,"English"
"2907","56ec2213388e1d000a5960c2",289,"reds",17,15,0,698.40000000596,FALSE,"English"
"29111","56ec2213388e1d000a5960c2",290,"yellows",18,20,1,1482.79999998212,FALSE,"English"
"2927","56ec2213388e1d000a5960c2",291,"browns",18,20,1,1331.79999998212,FALSE,"English"
"2937","56ec2213388e1d000a5960c2",292,"browns",19,17,1,743.5,FALSE,"English"
"2947","56ec2213388e1d000a5960c2",293,"blues",14,16,1,751.699999988079,TRUE,"English"
"2957","56ec2213388e1d000a5960c2",294,"reds",10,12,0,639,TRUE,"English"
"2967","56ec2213388e1d000a5960c2",295,"yellows",20,18,1,647.90000000596,FALSE,"English"
"2977","56ec2213388e1d000a5960c2",296,"yellows",1,3,0,987.5,FALSE,"English"
"2987","56ec2213388e1d000a5960c2",297,"yellows",4,2,0,1906.79999998212,FALSE,"English"
"629","5716248ecd6ea20012daf2c1",5,"reds",1,3,1,1720.30000007153,FALSE,"English"
"729","5716248ecd6ea20012daf2c1",6,"yellows",17,19,1,1462.60000002384,FALSE,"English"
"829","5716248ecd6ea20012daf2c1",7,"reds",10,12,1,2283.29999995232,TRUE,"English"
"929","5716248ecd6ea20012daf2c1",8,"blues",6,4,1,1491.39999997616,TRUE,"English"
"1028","5716248ecd6ea20012daf2c1",9,"blues",4,6,1,990.899999976158,TRUE,"English"
"1129","5716248ecd6ea20012daf2c1",10,"browns",10,8,1,2113.80000007153,FALSE,"English"
"1229","5716248ecd6ea20012daf2c1",11,"blues",9,7,1,1129.39999997616,TRUE,"English"
"1329","5716248ecd6ea20012daf2c1",12,"browns",10,8,1,1282.60000002384,FALSE,"English"
"1429","5716248ecd6ea20012daf2c1",13,"blues",7,9,1,2046.19999992847,TRUE,"English"
"1528","5716248ecd6ea20012daf2c1",14,"yellows",14,16,1,1806.69999992847,FALSE,"English"
"1629","5716248ecd6ea20012daf2c1",15,"browns",8,10,1,1368.60000002384,FALSE,"English"
"1729","5716248ecd6ea20012daf2c1",16,"browns",15,17,1,1460.39999997616,FALSE,"English"
"1829","5716248ecd6ea20012daf2c1",17,"blues",10,12,1,1686.09999990463,TRUE,"English"
"1929","5716248ecd6ea20012daf2c1",18,"browns",17,19,1,1042.10000002384,FALSE,"English"
"2028","5716248ecd6ea20012daf2c1",19,"reds",13,11,1,1217.10000002384,FALSE,"English"
"2129","5716248ecd6ea20012daf2c1",20,"yellows",20,18,0,1905.30000007153,FALSE,"English"
"2229","5716248ecd6ea20012daf2c1",21,"yellows",11,9,1,1820.19999992847,FALSE,"English"
"2329","5716248ecd6ea20012daf2c1",22,"browns",8,6,1,2362.29999995232,FALSE,"English"
"2429","5716248ecd6ea20012daf2c1",23,"blues",18,16,1,1587.10000002384,FALSE,"English"
"2528","5716248ecd6ea20012daf2c1",24,"yellows",16,14,1,1687.10000002384,FALSE,"English"
"2629","5716248ecd6ea20012daf2c1",25,"browns",7,5,1,1158.5,FALSE,"English"
"2729","5716248ecd6ea20012daf2c1",26,"yellows",9,11,1,1224.29999995232,FALSE,"English"
"2829","5716248ecd6ea20012daf2c1",27,"yellows",13,15,1,1508,FALSE,"English"
"2928","5716248ecd6ea20012daf2c1",28,"browns",18,20,1,2128.09999990463,FALSE,"English"
"308","5716248ecd6ea20012daf2c1",29,"reds",9,7,1,1691.30000007153,FALSE,"English"
"318","5716248ecd6ea20012daf2c1",30,"blues",12,10,1,1361.39999997616,TRUE,"English"
"328","5716248ecd6ea20012daf2c1",31,"reds",11,13,1,2354.39999997616,FALSE,"English"
"338","5716248ecd6ea20012daf2c1",32,"browns",20,18,1,1337.89999997616,FALSE,"English"
"348","5716248ecd6ea20012daf2c1",33,"yellows",18,20,1,2208.29999995232,FALSE,"English"
"358","5716248ecd6ea20012daf2c1",34,"yellows",5,7,1,1413.79999995232,FALSE,"English"
"368","5716248ecd6ea20012daf2c1",35,"reds",8,10,1,1796.19999992847,FALSE,"English"
"378","5716248ecd6ea20012daf2c1",36,"yellows",9,7,1,3671.39999997616,FALSE,"English"
"388","5716248ecd6ea20012daf2c1",37,"reds",14,16,0,1706.5,FALSE,"English"
"398","5716248ecd6ea20012daf2c1",38,"blues",8,10,1,1551.10000002384,FALSE,"English"
"408","5716248ecd6ea20012daf2c1",39,"blues",13,15,1,1529.40000009537,FALSE,"English"
"418","5716248ecd6ea20012daf2c1",40,"blues",9,11,1,1718,TRUE,"English"
"428","5716248ecd6ea20012daf2c1",41,"blues",15,17,1,2417.30000007153,FALSE,"English"
"438","5716248ecd6ea20012daf2c1",42,"yellows",15,13,1,1317.5,FALSE,"English"
"448","5716248ecd6ea20012daf2c1",43,"reds",12,14,1,2170.70000004768,FALSE,"English"
"458","5716248ecd6ea20012daf2c1",44,"blues",17,19,0,2647.39999997616,FALSE,"English"
"468","5716248ecd6ea20012daf2c1",45,"browns",6,8,1,2654.30000007153,FALSE,"English"
"478","5716248ecd6ea20012daf2c1",46,"yellows",6,4,1,2896.89999997616,FALSE,"English"
"488","5716248ecd6ea20012daf2c1",47,"yellows",5,3,1,1515.39999997616,FALSE,"English"
"498","5716248ecd6ea20012daf2c1",48,"browns",3,1,1,1519.90000009537,FALSE,"English"
"508","5716248ecd6ea20012daf2c1",49,"browns",8,6,1,1199.5,FALSE,"English"
"518","5716248ecd6ea20012daf2c1",50,"browns",1,3,1,1197.29999995232,FALSE,"English"
"528","5716248ecd6ea20012daf2c1",51,"reds",20,18,1,1501.89999997616,FALSE,"English"
"538","5716248ecd6ea20012daf2c1",52,"browns",14,16,1,1847.59999990463,FALSE,"English"
"548","5716248ecd6ea20012daf2c1",53,"reds",17,19,1,1324.60000002384,FALSE,"English"
"568","5716248ecd6ea20012daf2c1",55,"blues",19,17,1,1651.39999997616,FALSE,"English"
"578","5716248ecd6ea20012daf2c1",56,"blues",8,6,1,986.200000047684,TRUE,"English"
"588","5716248ecd6ea20012daf2c1",57,"reds",8,6,1,1020.29999995232,FALSE,"English"
"598","5716248ecd6ea20012daf2c1",58,"reds",4,2,1,1246.69999992847,FALSE,"English"
"608","5716248ecd6ea20012daf2c1",59,"reds",4,2,1,1251.79999995232,FALSE,"English"
"6112","5716248ecd6ea20012daf2c1",60,"browns",5,3,0,1396.29999995232,FALSE,"English"
"6210","5716248ecd6ea20012daf2c1",61,"yellows",6,8,1,1358.60000002384,FALSE,"English"
"638","5716248ecd6ea20012daf2c1",62,"blues",4,2,1,1618.09999990463,FALSE,"English"
"648","5716248ecd6ea20012daf2c1",63,"browns",10,12,1,1650.89999997616,TRUE,"English"
"658","5716248ecd6ea20012daf2c1",64,"browns",13,11,1,1239.60000002384,TRUE,"English"
"668","5716248ecd6ea20012daf2c1",65,"blues",15,13,1,1199.90000009537,FALSE,"English"
"678","5716248ecd6ea20012daf2c1",66,"blues",11,13,1,1149.09999990463,TRUE,"English"
"688","5716248ecd6ea20012daf2c1",67,"browns",12,14,1,1455.89999997616,FALSE,"English"
"698","5716248ecd6ea20012daf2c1",68,"reds",15,13,0,1793.90000009537,FALSE,"English"
"708","5716248ecd6ea20012daf2c1",69,"reds",5,3,1,1337.10000002384,FALSE,"English"
"7112","5716248ecd6ea20012daf2c1",70,"yellows",3,1,1,1960.79999995232,FALSE,"English"
"7210","5716248ecd6ea20012daf2c1",71,"blues",3,5,1,1753.29999995232,FALSE,"English"
"738","5716248ecd6ea20012daf2c1",72,"yellows",8,10,1,1878.39999997616,FALSE,"English"
"748","5716248ecd6ea20012daf2c1",73,"reds",18,20,0,1697.10000002384,FALSE,"English"
"758","5716248ecd6ea20012daf2c1",74,"reds",2,4,1,1907.60000002384,FALSE,"English"
"768","5716248ecd6ea20012daf2c1",75,"browns",16,18,1,1259.89999997616,FALSE,"English"
"778","5716248ecd6ea20012daf2c1",76,"yellows",16,14,1,1525.19999992847,FALSE,"English"
"788","5716248ecd6ea20012daf2c1",77,"yellows",12,10,1,1482.89999997616,FALSE,"English"
"798","5716248ecd6ea20012daf2c1",78,"reds",5,7,1,1200.30000007153,FALSE,"English"
"808","5716248ecd6ea20012daf2c1",79,"reds",7,5,1,1292.89999997616,FALSE,"English"
"8112","5716248ecd6ea20012daf2c1",80,"reds",14,12,1,1233.69999992847,FALSE,"English"
"8210","5716248ecd6ea20012daf2c1",81,"blues",18,20,1,1429.70000004768,FALSE,"English"
"838","5716248ecd6ea20012daf2c1",82,"reds",18,20,1,1678.89999997616,FALSE,"English"
"848","5716248ecd6ea20012daf2c1",83,"reds",3,1,1,1941.89999997616,FALSE,"English"
"858","5716248ecd6ea20012daf2c1",84,"browns",14,12,1,1572,FALSE,"English"
"868","5716248ecd6ea20012daf2c1",85,"blues",2,4,1,1628,FALSE,"English"
"878","5716248ecd6ea20012daf2c1",86,"yellows",12,14,1,1337.69999992847,TRUE,"English"
"888","5716248ecd6ea20012daf2c1",87,"yellows",17,15,1,1248.69999992847,FALSE,"English"
"898","5716248ecd6ea20012daf2c1",88,"blues",3,1,1,1060.10000002384,FALSE,"English"
"908","5716248ecd6ea20012daf2c1",89,"reds",6,4,1,1316.5,FALSE,"English"
"9112","5716248ecd6ea20012daf2c1",90,"yellows",8,6,0,1239.70000004768,FALSE,"English"
"9210","5716248ecd6ea20012daf2c1",91,"reds",3,1,1,3768.90000009537,FALSE,"English"
"938","5716248ecd6ea20012daf2c1",92,"yellows",4,6,1,1261.10000002384,FALSE,"English"
"948","5716248ecd6ea20012daf2c1",93,"blues",13,11,1,1086.69999992847,TRUE,"English"
"958","5716248ecd6ea20012daf2c1",94,"yellows",18,16,1,889.399999976158,FALSE,"English"
"968","5716248ecd6ea20012daf2c1",95,"reds",4,6,1,1477.89999997616,FALSE,"English"
"978","5716248ecd6ea20012daf2c1",96,"yellows",11,9,1,1593.29999995232,FALSE,"English"
"988","5716248ecd6ea20012daf2c1",97,"reds",5,3,1,2321,FALSE,"English"
"998","5716248ecd6ea20012daf2c1",98,"yellows",10,12,1,1443.10000002384,FALSE,"English"
"1008","5716248ecd6ea20012daf2c1",99,"browns",2,4,1,1836.29999995232,FALSE,"English"
"10112","5716248ecd6ea20012daf2c1",100,"browns",12,14,1,1308.39999997616,FALSE,"English"
"1029","5716248ecd6ea20012daf2c1",101,"browns",5,7,1,2313.10000002384,FALSE,"English"
"1038","5716248ecd6ea20012daf2c1",102,"blues",10,8,1,1376.89999997616,FALSE,"English"
"1048","5716248ecd6ea20012daf2c1",103,"browns",16,14,1,1447.5,FALSE,"English"
"1058","5716248ecd6ea20012daf2c1",104,"reds",16,14,1,1663.20000004768,FALSE,"English"
"1078","5716248ecd6ea20012daf2c1",106,"reds",17,15,0,1489.39999997616,FALSE,"English"
"1088","5716248ecd6ea20012daf2c1",107,"yellows",18,16,1,2231.60000002384,FALSE,"English"
"1098","5716248ecd6ea20012daf2c1",108,"reds",13,15,1,1372.10000002384,FALSE,"English"
"1108","5716248ecd6ea20012daf2c1",109,"yellows",4,2,1,1703.59999990463,FALSE,"English"
"11112","5716248ecd6ea20012daf2c1",110,"blues",5,7,1,1132.39999997616,TRUE,"English"
"11210","5716248ecd6ea20012daf2c1",111,"reds",14,12,1,1506.5,FALSE,"English"
"1138","5716248ecd6ea20012daf2c1",112,"browns",19,17,1,1074.89999997616,FALSE,"English"
"1148","5716248ecd6ea20012daf2c1",113,"reds",9,11,1,1267.80000007153,TRUE,"English"
"1158","5716248ecd6ea20012daf2c1",114,"yellows",5,3,0,1619,FALSE,"English"
"1168","5716248ecd6ea20012daf2c1",115,"reds",9,11,1,1683.29999995232,TRUE,"English"
"1178","5716248ecd6ea20012daf2c1",116,"blues",18,16,1,1643.39999997616,FALSE,"English"
"1188","5716248ecd6ea20012daf2c1",117,"blues",8,10,1,1364.5,FALSE,"English"
"1198","5716248ecd6ea20012daf2c1",118,"yellows",4,6,1,1150.30000007153,FALSE,"English"
"1208","5716248ecd6ea20012daf2c1",119,"yellows",8,10,1,1175.09999990463,FALSE,"English"
"12112","5716248ecd6ea20012daf2c1",120,"blues",20,18,1,2127.10000002384,FALSE,"English"
"12210","5716248ecd6ea20012daf2c1",121,"blues",15,17,1,906.5,FALSE,"English"
"1238","5716248ecd6ea20012daf2c1",122,"blues",7,5,1,1255.89999997616,TRUE,"English"
"1248","5716248ecd6ea20012daf2c1",123,"browns",9,7,0,1529.89999997616,FALSE,"English"
"1258","5716248ecd6ea20012daf2c1",124,"browns",8,10,1,1390.89999997616,FALSE,"English"
"1268","5716248ecd6ea20012daf2c1",125,"browns",12,10,1,1032.10000002384,TRUE,"English"
"1278","5716248ecd6ea20012daf2c1",126,"yellows",13,15,1,1172.70000004768,FALSE,"English"
"1288","5716248ecd6ea20012daf2c1",127,"browns",7,5,1,1119.89999997616,FALSE,"English"
"1298","5716248ecd6ea20012daf2c1",128,"browns",3,1,1,1234.10000002384,FALSE,"English"
"1308","5716248ecd6ea20012daf2c1",129,"reds",7,9,1,1044.30000007153,FALSE,"English"
"13112","5716248ecd6ea20012daf2c1",130,"browns",9,7,1,1224.09999990463,FALSE,"English"
"13210","5716248ecd6ea20012daf2c1",131,"blues",19,17,1,1185.70000004768,FALSE,"English"
"1338","5716248ecd6ea20012daf2c1",132,"blues",17,15,1,1263.19999992847,FALSE,"English"
"1348","5716248ecd6ea20012daf2c1",133,"browns",17,15,1,1087,FALSE,"English"
"1358","5716248ecd6ea20012daf2c1",134,"browns",17,15,1,1032.19999992847,FALSE,"English"
"1368","5716248ecd6ea20012daf2c1",135,"browns",10,12,1,1317.79999995232,TRUE,"English"
"1378","5716248ecd6ea20012daf2c1",136,"yellows",17,15,1,1120.19999992847,FALSE,"English"
"1388","5716248ecd6ea20012daf2c1",137,"reds",6,8,1,1737.20000004768,FALSE,"English"
"1398","5716248ecd6ea20012daf2c1",138,"yellows",16,18,1,935,FALSE,"English"
"1408","5716248ecd6ea20012daf2c1",139,"reds",3,5,1,1539.19999992847,FALSE,"English"
"14112","5716248ecd6ea20012daf2c1",140,"blues",12,14,1,2759.69999992847,FALSE,"English"
"14210","5716248ecd6ea20012daf2c1",141,"yellows",7,5,0,1143.79999995232,FALSE,"English"
"1438","5716248ecd6ea20012daf2c1",142,"browns",9,11,1,1589.59999990463,FALSE,"English"
"1448","5716248ecd6ea20012daf2c1",143,"yellows",10,8,0,1393.10000002384,FALSE,"English"
"1458","5716248ecd6ea20012daf2c1",144,"reds",17,19,1,3653.59999990463,FALSE,"English"
"1468","5716248ecd6ea20012daf2c1",145,"browns",4,6,1,1267.29999995232,FALSE,"English"
"1478","5716248ecd6ea20012daf2c1",146,"browns",18,16,1,1042.60000002384,FALSE,"English"
"1488","5716248ecd6ea20012daf2c1",147,"blues",11,9,1,1083.29999995232,TRUE,"English"
"1498","5716248ecd6ea20012daf2c1",148,"browns",6,8,1,1123,FALSE,"English"
"1508","5716248ecd6ea20012daf2c1",149,"blues",16,14,1,1533.60000002384,FALSE,"English"
"15112","5716248ecd6ea20012daf2c1",150,"reds",6,8,1,1045.89999997616,FALSE,"English"
"1529","5716248ecd6ea20012daf2c1",151,"blues",14,16,1,1295,FALSE,"English"
"1538","5716248ecd6ea20012daf2c1",152,"reds",2,4,1,1202.30000007153,FALSE,"English"
"1548","5716248ecd6ea20012daf2c1",153,"blues",3,5,1,952.600000023842,FALSE,"English"
"1558","5716248ecd6ea20012daf2c1",154,"blues",7,9,1,1229.60000002384,TRUE,"English"
"1568","5716248ecd6ea20012daf2c1",155,"yellows",7,9,1,1500.20000004768,FALSE,"English"
"1588","5716248ecd6ea20012daf2c1",157,"reds",11,13,1,1501.5,FALSE,"English"
"1598","5716248ecd6ea20012daf2c1",158,"yellows",2,4,1,1279.40000009537,FALSE,"English"
"1608","5716248ecd6ea20012daf2c1",159,"yellows",3,5,1,1389.70000004768,FALSE,"English"
"16112","5716248ecd6ea20012daf2c1",160,"yellows",7,5,1,1100.5,FALSE,"English"
"16210","5716248ecd6ea20012daf2c1",161,"reds",4,6,1,1018.30000007153,FALSE,"English"
"1638","5716248ecd6ea20012daf2c1",162,"yellows",1,3,1,1539.70000004768,FALSE,"English"
"1648","5716248ecd6ea20012daf2c1",163,"reds",5,7,1,1416.39999997616,FALSE,"English"
"1658","5716248ecd6ea20012daf2c1",164,"reds",14,16,1,1993.59999990463,FALSE,"English"
"1668","5716248ecd6ea20012daf2c1",165,"yellows",19,17,1,1356.70000004768,FALSE,"English"
"1678","5716248ecd6ea20012daf2c1",166,"reds",18,16,0,1973.5,FALSE,"English"
"1688","5716248ecd6ea20012daf2c1",167,"yellows",15,17,1,1208.20000004768,FALSE,"English"
"1698","5716248ecd6ea20012daf2c1",168,"blues",20,18,1,1581.10000002384,FALSE,"English"
"1708","5716248ecd6ea20012daf2c1",169,"blues",16,18,1,961.799999952316,FALSE,"English"
"17112","5716248ecd6ea20012daf2c1",170,"reds",16,18,0,1668.39999997616,FALSE,"English"
"17210","5716248ecd6ea20012daf2c1",171,"blues",12,10,1,1304.19999992847,TRUE,"English"
"1738","5716248ecd6ea20012daf2c1",172,"reds",10,8,1,873.800000071526,FALSE,"English"
"1748","5716248ecd6ea20012daf2c1",173,"reds",18,16,1,2174.60000002384,FALSE,"English"
"1758","5716248ecd6ea20012daf2c1",174,"yellows",18,20,1,2934.5,FALSE,"English"
"1768","5716248ecd6ea20012daf2c1",175,"reds",7,5,1,1831.10000002384,FALSE,"English"
"1778","5716248ecd6ea20012daf2c1",176,"browns",17,19,1,1791.60000002384,FALSE,"English"
"1788","5716248ecd6ea20012daf2c1",177,"reds",8,6,1,1850.5,FALSE,"English"
"1798","5716248ecd6ea20012daf2c1",178,"blues",7,5,1,1016.29999995232,TRUE,"English"
"1808","5716248ecd6ea20012daf2c1",179,"reds",20,18,1,1620.89999997616,FALSE,"English"
"18112","5716248ecd6ea20012daf2c1",180,"browns",20,18,1,1090.60000002384,FALSE,"English"
"18210","5716248ecd6ea20012daf2c1",181,"browns",18,16,1,900.100000023842,FALSE,"English"
"1838","5716248ecd6ea20012daf2c1",182,"reds",13,11,0,1200.69999992847,FALSE,"English"
"1848","5716248ecd6ea20012daf2c1",183,"reds",12,10,1,1021.79999995232,TRUE,"English"
"1858","5716248ecd6ea20012daf2c1",184,"blues",5,3,0,1316.10000002384,FALSE,"English"
"1868","5716248ecd6ea20012daf2c1",185,"yellows",12,10,0,1211.20000004768,FALSE,"English"
"1878","5716248ecd6ea20012daf2c1",186,"yellows",11,13,1,1237.90000009537,TRUE,"English"
"1888","5716248ecd6ea20012daf2c1",187,"blues",18,20,1,1832.79999995232,FALSE,"English"
"1898","5716248ecd6ea20012daf2c1",188,"reds",3,5,1,1494,FALSE,"English"
"1908","5716248ecd6ea20012daf2c1",189,"browns",4,2,1,1603.70000004768,FALSE,"English"
"19112","5716248ecd6ea20012daf2c1",190,"browns",15,17,1,1558.90000009537,FALSE,"English"
"19210","5716248ecd6ea20012daf2c1",191,"reds",12,14,1,2550.60000002384,FALSE,"English"
"1938","5716248ecd6ea20012daf2c1",192,"browns",11,13,1,1936.60000002384,TRUE,"English"
"1948","5716248ecd6ea20012daf2c1",193,"browns",4,6,1,1551.80000007153,FALSE,"English"
"1958","5716248ecd6ea20012daf2c1",194,"yellows",10,12,1,1916.29999995232,FALSE,"English"
"1968","5716248ecd6ea20012daf2c1",195,"browns",9,11,1,1406.20000004768,FALSE,"English"
"1978","5716248ecd6ea20012daf2c1",196,"browns",13,15,1,2029.60000002384,FALSE,"English"
"1988","5716248ecd6ea20012daf2c1",197,"browns",11,13,1,974.299999952316,TRUE,"English"
"1998","5716248ecd6ea20012daf2c1",198,"reds",16,14,1,1073.5,FALSE,"English"
"2008","5716248ecd6ea20012daf2c1",199,"browns",6,4,1,1800.89999997616,FALSE,"English"
"20112","5716248ecd6ea20012daf2c1",200,"blues",11,13,1,1007,TRUE,"English"
"2029","5716248ecd6ea20012daf2c1",201,"yellows",6,4,1,2528.5,FALSE,"English"
"2038","5716248ecd6ea20012daf2c1",202,"yellows",5,7,1,2002.5,FALSE,"English"
"2048","5716248ecd6ea20012daf2c1",203,"browns",7,9,0,2293.5,FALSE,"English"
"2058","5716248ecd6ea20012daf2c1",204,"yellows",9,7,1,1182.10000002384,FALSE,"English"
"2068","5716248ecd6ea20012daf2c1",205,"browns",19,17,1,741.399999976158,FALSE,"English"
"2078","5716248ecd6ea20012daf2c1",206,"blues",5,7,1,2322.5,TRUE,"English"
"2098","5716248ecd6ea20012daf2c1",208,"browns",1,3,1,1932.80000007153,FALSE,"English"
"2108","5716248ecd6ea20012daf2c1",209,"reds",10,12,1,903.200000047684,TRUE,"English"
"21112","5716248ecd6ea20012daf2c1",210,"reds",8,10,1,1341.60000002384,FALSE,"English"
"21210","5716248ecd6ea20012daf2c1",211,"yellows",4,2,1,3112.60000002384,FALSE,"English"
"2138","5716248ecd6ea20012daf2c1",212,"reds",10,8,1,1596,FALSE,"English"
"2148","5716248ecd6ea20012daf2c1",213,"reds",17,15,0,1344.69999992847,FALSE,"English"
"2158","5716248ecd6ea20012daf2c1",214,"blues",3,1,1,1337.30000007153,FALSE,"English"
"2168","5716248ecd6ea20012daf2c1",215,"reds",11,9,0,1567.29999995232,TRUE,"English"
"2178","5716248ecd6ea20012daf2c1",216,"browns",12,10,1,1743.10000002384,TRUE,"English"
"2188","5716248ecd6ea20012daf2c1",217,"blues",14,12,1,1011,FALSE,"English"
"2198","5716248ecd6ea20012daf2c1",218,"reds",19,17,1,1990.5,FALSE,"English"
"2208","5716248ecd6ea20012daf2c1",219,"browns",3,5,0,1408.29999995232,FALSE,"English"
"22112","5716248ecd6ea20012daf2c1",220,"browns",16,18,1,1047.5,FALSE,"English"
"22210","5716248ecd6ea20012daf2c1",221,"yellows",10,8,1,1887.20000004768,FALSE,"English"
"2238","5716248ecd6ea20012daf2c1",222,"browns",18,20,1,1740,FALSE,"English"
"2248","5716248ecd6ea20012daf2c1",223,"blues",16,14,1,972.5,FALSE,"English"
"2258","5716248ecd6ea20012daf2c1",224,"yellows",9,11,1,940,FALSE,"English"
"2268","5716248ecd6ea20012daf2c1",225,"blues",16,18,1,1381.30000007153,FALSE,"English"
"2278","5716248ecd6ea20012daf2c1",226,"blues",10,12,1,1747.39999997616,TRUE,"English"
"2288","5716248ecd6ea20012daf2c1",227,"browns",4,2,1,1620.29999995232,FALSE,"English"
"2298","5716248ecd6ea20012daf2c1",228,"blues",13,15,0,1268.10000002384,FALSE,"English"
"2308","5716248ecd6ea20012daf2c1",229,"blues",11,9,0,1073.20000004768,TRUE,"English"
"23112","5716248ecd6ea20012daf2c1",230,"reds",7,9,1,1534.30000007153,FALSE,"English"
"23210","5716248ecd6ea20012daf2c1",231,"yellows",14,16,1,1335.89999997616,FALSE,"English"
"2338","5716248ecd6ea20012daf2c1",232,"browns",2,4,1,1674.59999990463,FALSE,"English"
"2348","5716248ecd6ea20012daf2c1",233,"yellows",11,13,1,1013,TRUE,"English"
"2358","5716248ecd6ea20012daf2c1",234,"blues",15,13,1,2245.60000002384,FALSE,"English"
"2368","5716248ecd6ea20012daf2c1",235,"blues",9,7,1,1835.79999995232,TRUE,"English"
"2378","5716248ecd6ea20012daf2c1",236,"yellows",3,5,1,1063.70000004768,FALSE,"English"
"2388","5716248ecd6ea20012daf2c1",237,"yellows",15,17,1,1543.59999990463,FALSE,"English"
"2398","5716248ecd6ea20012daf2c1",238,"yellows",8,6,1,1600.19999992847,FALSE,"English"
"2408","5716248ecd6ea20012daf2c1",239,"blues",13,11,1,1945.90000009537,TRUE,"English"
"24112","5716248ecd6ea20012daf2c1",240,"yellows",6,8,1,2599.89999997616,FALSE,"English"
"24210","5716248ecd6ea20012daf2c1",241,"blues",4,2,1,1518.10000002384,FALSE,"English"
"2438","5716248ecd6ea20012daf2c1",242,"browns",14,12,1,967,FALSE,"English"
"2448","5716248ecd6ea20012daf2c1",243,"reds",16,18,1,2194.70000004768,FALSE,"English"
"2458","5716248ecd6ea20012daf2c1",244,"reds",15,17,1,2089.80000007153,FALSE,"English"
"2468","5716248ecd6ea20012daf2c1",245,"reds",15,17,1,2224.5,FALSE,"English"
"2478","5716248ecd6ea20012daf2c1",246,"browns",14,16,1,1697.09999990463,FALSE,"English"
"2488","5716248ecd6ea20012daf2c1",247,"reds",11,9,1,1299.60000002384,TRUE,"English"
"2498","5716248ecd6ea20012daf2c1",248,"reds",9,7,0,1204,FALSE,"English"
"2508","5716248ecd6ea20012daf2c1",249,"browns",11,9,1,1161.5,FALSE,"English"
"25112","5716248ecd6ea20012daf2c1",250,"blues",12,14,1,981.299999952316,FALSE,"English"
"2529","5716248ecd6ea20012daf2c1",251,"yellows",17,19,0,2104,FALSE,"English"
"2538","5716248ecd6ea20012daf2c1",252,"blues",2,4,1,2051.39999997616,FALSE,"English"
"2548","5716248ecd6ea20012daf2c1",253,"blues",9,11,1,1570.29999995232,TRUE,"English"
"2558","5716248ecd6ea20012daf2c1",254,"yellows",1,3,1,1438.89999997616,FALSE,"English"
"2568","5716248ecd6ea20012daf2c1",255,"blues",5,3,1,1870.39999997616,FALSE,"English"
"2578","5716248ecd6ea20012daf2c1",256,"blues",6,4,1,1273,TRUE,"English"
"2588","5716248ecd6ea20012daf2c1",257,"blues",10,8,1,1090.89999997616,FALSE,"English"
"2608","5716248ecd6ea20012daf2c1",259,"reds",6,4,1,1100.60000002384,FALSE,"English"
"26112","5716248ecd6ea20012daf2c1",260,"yellows",20,18,1,950.799999952316,FALSE,"English"
"26210","5716248ecd6ea20012daf2c1",261,"browns",7,9,1,1218.70000004768,FALSE,"English"
"2638","5716248ecd6ea20012daf2c1",262,"blues",8,6,1,1545.79999995232,TRUE,"English"
"2648","5716248ecd6ea20012daf2c1",263,"reds",1,3,1,2252.39999997616,FALSE,"English"
"2658","5716248ecd6ea20012daf2c1",264,"blues",17,19,0,1568.80000007153,FALSE,"English"
"2668","5716248ecd6ea20012daf2c1",265,"yellows",13,11,0,1069.39999997616,TRUE,"English"
"2678","5716248ecd6ea20012daf2c1",266,"browns",5,3,1,1957.70000004768,FALSE,"English"
"2688","5716248ecd6ea20012daf2c1",267,"yellows",16,18,1,1604.40000009537,FALSE,"English"
"2698","5716248ecd6ea20012daf2c1",268,"browns",13,15,1,1164,FALSE,"English"
"2708","5716248ecd6ea20012daf2c1",269,"blues",1,3,1,987.899999976158,FALSE,"English"
"27112","5716248ecd6ea20012daf2c1",270,"yellows",14,12,1,1116.59999990463,TRUE,"English"
"27210","5716248ecd6ea20012daf2c1",271,"browns",15,13,1,933.100000023842,FALSE,"English"
"2738","5716248ecd6ea20012daf2c1",272,"yellows",7,9,1,942.299999952316,FALSE,"English"
"2748","5716248ecd6ea20012daf2c1",273,"browns",15,13,1,920,FALSE,"English"
"2758","5716248ecd6ea20012daf2c1",274,"blues",6,8,1,945.600000023842,TRUE,"English"
"2768","5716248ecd6ea20012daf2c1",275,"blues",14,16,1,1101.5,FALSE,"English"
"2778","5716248ecd6ea20012daf2c1",276,"reds",12,10,1,1511.10000002384,TRUE,"English"
"2788","5716248ecd6ea20012daf2c1",277,"browns",16,14,1,783,FALSE,"English"
"2798","5716248ecd6ea20012daf2c1",278,"browns",6,4,1,849.199999928474,FALSE,"English"
"2808","5716248ecd6ea20012daf2c1",279,"blues",14,12,0,864.399999976158,FALSE,"English"
"28112","5716248ecd6ea20012daf2c1",280,"yellows",12,14,1,782.799999952316,TRUE,"English"
"28210","5716248ecd6ea20012daf2c1",281,"blues",17,15,1,1224.29999995232,FALSE,"English"
"2838","5716248ecd6ea20012daf2c1",282,"yellows",2,4,1,882,FALSE,"English"
"2848","5716248ecd6ea20012daf2c1",283,"yellows",19,17,1,1126.19999992847,FALSE,"English"
"2858","5716248ecd6ea20012daf2c1",284,"reds",19,17,1,1533.30000007153,FALSE,"English"
"2868","5716248ecd6ea20012daf2c1",285,"blues",4,6,1,1434.39999997616,TRUE,"English"
"2878","5716248ecd6ea20012daf2c1",286,"browns",3,5,1,923.600000023842,FALSE,"English"
"2888","5716248ecd6ea20012daf2c1",287,"yellows",15,13,1,711.200000047684,FALSE,"English"
"2898","5716248ecd6ea20012daf2c1",288,"yellows",3,1,1,2468.09999990463,FALSE,"English"
"2908","5716248ecd6ea20012daf2c1",289,"browns",11,9,1,1743.5,FALSE,"English"
"29112","5716248ecd6ea20012daf2c1",290,"blues",1,3,1,1059.5,FALSE,"English"
"2929","5716248ecd6ea20012daf2c1",291,"reds",13,15,1,1647.40000009537,FALSE,"English"
"2938","5716248ecd6ea20012daf2c1",292,"browns",5,7,1,2226.39999997616,FALSE,"English"
"2948","5716248ecd6ea20012daf2c1",293,"reds",15,13,1,2642.5,FALSE,"English"
"2958","5716248ecd6ea20012daf2c1",294,"yellows",14,12,1,955.599999904633,TRUE,"English"
"2968","5716248ecd6ea20012daf2c1",295,"yellows",13,11,1,1549.70000004768,TRUE,"English"
"2978","5716248ecd6ea20012daf2c1",296,"blues",6,8,1,2896.30000007153,TRUE,"English"
"2988","5716248ecd6ea20012daf2c1",297,"browns",13,11,1,1158.09999990463,TRUE,"English"
"630","572d2656109ab6000f514e48",5,"yellows",14,12,1,1586,FALSE,"English"
"730","572d2656109ab6000f514e48",6,"reds",14,12,1,1316,TRUE,"English"
"830","572d2656109ab6000f514e48",7,"reds",17,19,0,1469,FALSE,"English"
"930","572d2656109ab6000f514e48",8,"blues",19,17,1,1894,FALSE,"English"
"1030","572d2656109ab6000f514e48",9,"reds",13,15,1,1822,FALSE,"English"
"1130","572d2656109ab6000f514e48",10,"browns",6,8,1,1916,FALSE,"English"
"1230","572d2656109ab6000f514e48",11,"yellows",9,7,0,1960,TRUE,"English"
"1330","572d2656109ab6000f514e48",12,"yellows",5,7,1,2638,FALSE,"English"
"1430","572d2656109ab6000f514e48",13,"blues",19,17,0,2042,FALSE,"English"
"1530","572d2656109ab6000f514e48",14,"reds",13,11,1,2006,TRUE,"English"
"1630","572d2656109ab6000f514e48",15,"browns",9,7,1,1410,FALSE,"English"
"1730","572d2656109ab6000f514e48",16,"reds",9,7,1,1181,FALSE,"English"
"1830","572d2656109ab6000f514e48",17,"blues",9,7,0,1960,FALSE,"English"
"1930","572d2656109ab6000f514e48",18,"browns",15,13,0,1808,FALSE,"English"
"2030","572d2656109ab6000f514e48",19,"reds",3,1,0,2102,FALSE,"English"
"2130","572d2656109ab6000f514e48",20,"browns",17,19,1,1645,FALSE,"English"
"2230","572d2656109ab6000f514e48",21,"reds",15,17,1,2395,FALSE,"English"
"2330","572d2656109ab6000f514e48",22,"reds",12,14,1,1890,TRUE,"English"
"2430","572d2656109ab6000f514e48",23,"yellows",11,13,1,1883,FALSE,"English"
"2530","572d2656109ab6000f514e48",24,"yellows",8,6,1,1682,FALSE,"English"
"2630","572d2656109ab6000f514e48",25,"reds",7,9,1,1600,FALSE,"English"
"2730","572d2656109ab6000f514e48",26,"reds",20,18,0,2267,FALSE,"English"
"2830","572d2656109ab6000f514e48",27,"browns",20,18,1,1891,FALSE,"English"
"2930","572d2656109ab6000f514e48",28,"browns",5,7,1,1510,FALSE,"English"
"309","572d2656109ab6000f514e48",29,"yellows",9,11,1,1281,TRUE,"English"
"319","572d2656109ab6000f514e48",30,"yellows",6,8,1,1445,FALSE,"English"
"329","572d2656109ab6000f514e48",31,"reds",12,14,1,1985,TRUE,"English"
"339","572d2656109ab6000f514e48",32,"reds",14,16,1,2078,FALSE,"English"
"349","572d2656109ab6000f514e48",33,"blues",14,12,1,1377,TRUE,"English"
"359","572d2656109ab6000f514e48",34,"reds",17,15,1,1198,FALSE,"English"
"369","572d2656109ab6000f514e48",35,"reds",18,16,1,1180,FALSE,"English"
"379","572d2656109ab6000f514e48",36,"browns",13,15,1,1423,FALSE,"English"
"389","572d2656109ab6000f514e48",37,"blues",8,6,0,1796,FALSE,"English"
"399","572d2656109ab6000f514e48",38,"reds",15,13,0,1156,FALSE,"English"
"409","572d2656109ab6000f514e48",39,"browns",14,16,1,2028,FALSE,"English"
"419","572d2656109ab6000f514e48",40,"reds",9,11,1,1884,TRUE,"English"
"429","572d2656109ab6000f514e48",41,"blues",13,11,1,1829,TRUE,"English"
"439","572d2656109ab6000f514e48",42,"blues",18,20,0,2049,FALSE,"English"
"449","572d2656109ab6000f514e48",43,"reds",3,5,1,1347,FALSE,"English"
"459","572d2656109ab6000f514e48",44,"yellows",10,12,1,1676,TRUE,"English"
"469","572d2656109ab6000f514e48",45,"yellows",16,14,1,945,FALSE,"English"
"479","572d2656109ab6000f514e48",46,"browns",8,10,1,1560,FALSE,"English"
"489","572d2656109ab6000f514e48",47,"reds",16,14,0,1479,FALSE,"English"
"499","572d2656109ab6000f514e48",48,"yellows",14,16,0,1103,FALSE,"English"
"509","572d2656109ab6000f514e48",49,"yellows",20,18,1,1045,FALSE,"English"
"519","572d2656109ab6000f514e48",50,"blues",10,8,1,1383,FALSE,"English"
"529","572d2656109ab6000f514e48",51,"blues",11,9,1,1343,FALSE,"English"
"539","572d2656109ab6000f514e48",52,"blues",20,18,1,2095,FALSE,"English"
"549","572d2656109ab6000f514e48",53,"reds",8,10,1,1997,FALSE,"English"
"569","572d2656109ab6000f514e48",55,"blues",7,9,1,1510,FALSE,"English"
"579","572d2656109ab6000f514e48",56,"blues",16,14,1,985,FALSE,"English"
"589","572d2656109ab6000f514e48",57,"yellows",9,11,1,1289,TRUE,"English"
