"","subject_id","trial_index","is_monolingual","colour","target","distractor","accuracy","rt","is.transition","language"
"710","59f096e47f3d71000171e46b",6,"yes","browns",17,15,0,1031.20000004768,FALSE,"Russian"
"810","59f096e47f3d71000171e46b",7,"yes","reds",12,14,1,1194.20000004768,TRUE,"Russian"
"910","59f096e47f3d71000171e46b",8,"yes","browns",9,11,0,1431.20000004768,FALSE,"Russian"
"107","59f096e47f3d71000171e46b",9,"yes","blues",15,13,1,1000.40000009537,FALSE,"Russian"
"1110","59f096e47f3d71000171e46b",10,"yes","reds",6,4,1,1012.79999995232,FALSE,"Russian"
"1210","59f096e47f3d71000171e46b",11,"yes","yellows",7,5,1,1144.5,FALSE,"Russian"
"1310","59f096e47f3d71000171e46b",12,"yes","reds",19,17,1,1287.40000009537,FALSE,"Russian"
"1410","59f096e47f3d71000171e46b",13,"yes","reds",4,2,1,1152.59999990463,FALSE,"Russian"
"158","59f096e47f3d71000171e46b",14,"yes","yellows",11,9,1,1012.90000009537,FALSE,"Russian"
"1610","59f096e47f3d71000171e46b",15,"yes","browns",15,13,1,1263.29999995232,TRUE,"Russian"
"1710","59f096e47f3d71000171e46b",16,"yes","blues",17,15,1,1133,FALSE,"Russian"
"1810","59f096e47f3d71000171e46b",17,"yes","blues",6,8,0,835.299999952316,FALSE,"Russian"
"1910","59f096e47f3d71000171e46b",18,"yes","browns",16,14,1,2011,FALSE,"Russian"
"209","59f096e47f3d71000171e46b",19,"yes","yellows",14,12,1,1448.70000004768,FALSE,"Russian"
"2110","59f096e47f3d71000171e46b",20,"yes","reds",14,12,1,1162.19999980927,TRUE,"Russian"
"2210","59f096e47f3d71000171e46b",21,"yes","blues",11,13,0,1408,FALSE,"Russian"
"2310","59f096e47f3d71000171e46b",22,"yes","yellows",20,18,1,1109.70000004768,FALSE,"Russian"
"2410","59f096e47f3d71000171e46b",23,"yes","yellows",13,11,1,1504.20000004768,FALSE,"Russian"
"2510","59f096e47f3d71000171e46b",24,"yes","browns",14,16,0,1386.09999990463,FALSE,"Russian"
"2610","59f096e47f3d71000171e46b",25,"yes","reds",10,12,0,1280.10000014305,TRUE,"Russian"
"2710","59f096e47f3d71000171e46b",26,"yes","browns",12,14,0,1073.79999995232,TRUE,"Russian"
"2810","59f096e47f3d71000171e46b",27,"yes","reds",7,9,0,997.599999904633,FALSE,"Russian"
"2910","59f096e47f3d71000171e46b",28,"yes","reds",15,17,1,887.799999952316,FALSE,"Russian"
"301","59f096e47f3d71000171e46b",29,"yes","reds",15,13,1,1636.90000009537,FALSE,"Russian"
"311","59f096e47f3d71000171e46b",30,"yes","yellows",11,13,0,1447.90000009537,FALSE,"Russian"
"321","59f096e47f3d71000171e46b",31,"yes","yellows",15,17,0,961.799999952316,FALSE,"Russian"
"331","59f096e47f3d71000171e46b",32,"yes","yellows",19,17,1,1003,TRUE,"Russian"
"341","59f096e47f3d71000171e46b",33,"yes","browns",1,3,1,1468.5,FALSE,"Russian"
"351","59f096e47f3d71000171e46b",34,"yes","blues",3,5,1,1084.90000009537,FALSE,"Russian"
"361","59f096e47f3d71000171e46b",35,"yes","blues",7,5,1,983.399999856949,FALSE,"Russian"
"371","59f096e47f3d71000171e46b",36,"yes","browns",4,2,1,947.900000095367,FALSE,"Russian"
"381","59f096e47f3d71000171e46b",37,"yes","yellows",4,6,0,1420.70000004768,FALSE,"Russian"
"391","59f096e47f3d71000171e46b",38,"yes","yellows",18,20,1,2548.79999995232,FALSE,"Russian"
"401","59f096e47f3d71000171e46b",39,"yes","reds",8,6,1,1575,FALSE,"Russian"
"411","59f096e47f3d71000171e46b",40,"yes","reds",20,18,1,1707.59999990463,FALSE,"Russian"
"421","59f096e47f3d71000171e46b",41,"yes","reds",13,15,0,1750.19999980927,FALSE,"Russian"
"431","59f096e47f3d71000171e46b",42,"yes","blues",11,9,1,970.900000095367,TRUE,"Russian"
"441","59f096e47f3d71000171e46b",43,"yes","browns",9,7,1,1538.70000004768,FALSE,"Russian"
"451","59f096e47f3d71000171e46b",44,"yes","reds",9,7,1,1360.90000009537,FALSE,"Russian"
"461","59f096e47f3d71000171e46b",45,"yes","browns",10,12,0,839,FALSE,"Russian"
"471","59f096e47f3d71000171e46b",46,"yes","browns",17,19,1,1686.30000019073,FALSE,"Russian"
"481","59f096e47f3d71000171e46b",47,"yes","browns",19,17,1,851.200000047684,FALSE,"Russian"
"491","59f096e47f3d71000171e46b",48,"yes","yellows",7,5,1,918.5,FALSE,"Russian"
"501","59f096e47f3d71000171e46b",49,"yes","blues",10,8,1,895.599999904633,TRUE,"Russian"
"511","59f096e47f3d71000171e46b",50,"yes","reds",17,19,1,1252.5,FALSE,"Russian"
"521","59f096e47f3d71000171e46b",51,"yes","reds",8,10,1,1391.90000009537,FALSE,"Russian"
"531","59f096e47f3d71000171e46b",52,"yes","yellows",18,20,1,1839.90000009537,FALSE,"Russian"
"541","59f096e47f3d71000171e46b",53,"yes","reds",7,5,1,2437.59999990463,FALSE,"Russian"
"551","59f096e47f3d71000171e46b",54,"yes","blues",11,13,0,952.900000095367,FALSE,"Russian"
"571","59f096e47f3d71000171e46b",56,"yes","browns",17,19,0,879,FALSE,"Russian"
"581","59f096e47f3d71000171e46b",57,"yes","yellows",6,4,1,1008.60000014305,FALSE,"Russian"
"591","59f096e47f3d71000171e46b",58,"yes","browns",15,17,0,814.599999904633,FALSE,"Russian"
"601","59f096e47f3d71000171e46b",59,"yes","reds",1,3,0,849.700000047684,FALSE,"Russian"
"611","59f096e47f3d71000171e46b",60,"yes","browns",10,8,1,724.299999952316,FALSE,"Russian"
"621","59f096e47f3d71000171e46b",61,"yes","blues",6,4,1,676.700000047684,FALSE,"Russian"
"631","59f096e47f3d71000171e46b",62,"yes","blues",20,18,1,1241.5,FALSE,"Russian"
"641","59f096e47f3d71000171e46b",63,"yes","reds",4,6,0,830.699999809265,FALSE,"Russian"
"651","59f096e47f3d71000171e46b",64,"yes","yellows",5,7,1,1232.59999990463,FALSE,"Russian"
"661","59f096e47f3d71000171e46b",65,"yes","blues",12,14,0,885.799999952316,FALSE,"Russian"
"671","59f096e47f3d71000171e46b",66,"yes","yellows",14,16,1,1402.19999980927,FALSE,"Russian"
"681","59f096e47f3d71000171e46b",67,"yes","yellows",1,3,1,1141.59999990463,FALSE,"Russian"
"691","59f096e47f3d71000171e46b",68,"yes","reds",9,11,1,2224.20000004768,FALSE,"Russian"
"701","59f096e47f3d71000171e46b",69,"yes","reds",7,5,1,999.700000047684,FALSE,"Russian"
"711","59f096e47f3d71000171e46b",70,"yes","reds",16,14,1,2191.40000009537,FALSE,"Russian"
"721","59f096e47f3d71000171e46b",71,"yes","reds",19,17,1,1910.60000014305,FALSE,"Russian"
"731","59f096e47f3d71000171e46b",72,"yes","yellows",16,18,0,1167.5,FALSE,"Russian"
"741","59f096e47f3d71000171e46b",73,"yes","yellows",17,15,1,2458.10000014305,FALSE,"Russian"
"751","59f096e47f3d71000171e46b",74,"yes","yellows",5,7,0,1766.90000009537,FALSE,"Russian"
"761","59f096e47f3d71000171e46b",75,"yes","browns",14,12,1,962.5,TRUE,"Russian"
"771","59f096e47f3d71000171e46b",76,"yes","reds",12,14,0,1183.40000009537,TRUE,"Russian"
"781","59f096e47f3d71000171e46b",77,"yes","blues",7,9,1,1763.29999995232,FALSE,"Russian"
"791","59f096e47f3d71000171e46b",78,"yes","blues",13,15,0,767.800000190735,FALSE,"Russian"
"801","59f096e47f3d71000171e46b",79,"yes","browns",13,15,0,954.800000190735,TRUE,"Russian"
"811","59f096e47f3d71000171e46b",80,"yes","browns",17,15,1,710.799999952316,FALSE,"Russian"
"821","59f096e47f3d71000171e46b",81,"yes","reds",14,12,1,1233.29999995232,TRUE,"Russian"
"831","59f096e47f3d71000171e46b",82,"yes","browns",15,13,1,747.800000190735,TRUE,"Russian"
"841","59f096e47f3d71000171e46b",83,"yes","browns",11,13,0,728.599999904633,TRUE,"Russian"
"851","59f096e47f3d71000171e46b",84,"yes","blues",1,3,1,829.900000095367,FALSE,"Russian"
"861","59f096e47f3d71000171e46b",85,"yes","browns",9,11,1,1164.5,FALSE,"Russian"
"871","59f096e47f3d71000171e46b",86,"yes","blues",8,6,1,1033.40000009537,FALSE,"Russian"
"881","59f096e47f3d71000171e46b",87,"yes","reds",14,16,1,1378.5,FALSE,"Russian"
"891","59f096e47f3d71000171e46b",88,"yes","reds",18,16,1,1248.79999995232,FALSE,"Russian"
"901","59f096e47f3d71000171e46b",89,"yes","reds",16,18,0,900.400000095367,FALSE,"Russian"
"911","59f096e47f3d71000171e46b",90,"yes","yellows",18,16,1,940.599999904633,FALSE,"Russian"
"921","59f096e47f3d71000171e46b",91,"yes","blues",15,17,0,1353.09999990463,FALSE,"Russian"
"931","59f096e47f3d71000171e46b",92,"yes","blues",16,18,0,1268.40000009537,FALSE,"Russian"
"941","59f096e47f3d71000171e46b",93,"yes","reds",2,4,0,1246.39999985695,FALSE,"Russian"
"951","59f096e47f3d71000171e46b",94,"yes","yellows",10,8,1,2244.89999985695,TRUE,"Russian"
"961","59f096e47f3d71000171e46b",95,"yes","reds",18,20,0,828.700000047684,FALSE,"Russian"
"971","59f096e47f3d71000171e46b",96,"yes","yellows",6,4,1,2124.10000014305,FALSE,"Russian"
"981","59f096e47f3d71000171e46b",97,"yes","yellows",4,6,1,1500.79999995232,FALSE,"Russian"
"991","59f096e47f3d71000171e46b",98,"yes","blues",3,1,0,1431.5,FALSE,"Russian"
"1001","59f096e47f3d71000171e46b",99,"yes","yellows",12,14,1,2483.40000009537,FALSE,"Russian"
"1011","59f096e47f3d71000171e46b",100,"yes","blues",19,17,1,728.400000095367,FALSE,"Russian"
"1021","59f096e47f3d71000171e46b",101,"yes","browns",16,18,0,619.199999809265,FALSE,"Russian"
"1031","59f096e47f3d71000171e46b",102,"yes","browns",18,20,1,1294,FALSE,"Russian"
"1041","59f096e47f3d71000171e46b",103,"yes","blues",18,16,1,2701.30000019073,FALSE,"Russian"
"1051","59f096e47f3d71000171e46b",104,"yes","reds",8,6,1,751.599999904633,FALSE,"Russian"
"1061","59f096e47f3d71000171e46b",105,"yes","browns",18,16,1,870.199999809265,FALSE,"Russian"
"1081","59f096e47f3d71000171e46b",107,"yes","reds",5,3,1,1106.40000009537,FALSE,"Russian"
"1091","59f096e47f3d71000171e46b",108,"yes","yellows",10,12,1,1511.5,FALSE,"Russian"
"1101","59f096e47f3d71000171e46b",109,"yes","browns",10,8,1,942.400000095367,FALSE,"Russian"
"1111","59f096e47f3d71000171e46b",110,"yes","browns",19,17,1,1081.10000014305,FALSE,"Russian"
"1121","59f096e47f3d71000171e46b",111,"yes","yellows",13,11,1,1482.90000009537,FALSE,"Russian"
"1131","59f096e47f3d71000171e46b",112,"yes","blues",2,4,1,938.399999856949,FALSE,"Russian"
"1141","59f096e47f3d71000171e46b",113,"yes","yellows",11,9,1,1043.5,FALSE,"Russian"
"1151","59f096e47f3d71000171e46b",114,"yes","browns",4,6,1,1475.40000009537,FALSE,"Russian"
"1161","59f096e47f3d71000171e46b",115,"yes","blues",14,16,1,2051.09999990463,FALSE,"Russian"
"1171","59f096e47f3d71000171e46b",116,"yes","browns",5,3,1,979.400000095367,FALSE,"Russian"
"1181","59f096e47f3d71000171e46b",117,"yes","yellows",8,6,1,1193.20000004768,FALSE,"Russian"
"1191","59f096e47f3d71000171e46b",118,"yes","blues",11,9,1,1074,TRUE,"Russian"
"1201","59f096e47f3d71000171e46b",119,"yes","blues",4,6,1,878.200000047684,FALSE,"Russian"
"1211","59f096e47f3d71000171e46b",120,"yes","blues",18,20,1,3199.29999995232,FALSE,"Russian"
"1221","59f096e47f3d71000171e46b",121,"yes","yellows",12,10,1,1573.40000009537,FALSE,"Russian"
"1231","59f096e47f3d71000171e46b",122,"yes","blues",12,10,1,1474,TRUE,"Russian"
"1241","59f096e47f3d71000171e46b",123,"yes","yellows",15,13,1,937.699999809265,FALSE,"Russian"
"1251","59f096e47f3d71000171e46b",124,"yes","browns",14,16,0,838.600000143051,FALSE,"Russian"
"1261","59f096e47f3d71000171e46b",125,"yes","yellows",9,11,1,1106.5,FALSE,"Russian"
"1271","59f096e47f3d71000171e46b",126,"yes","browns",6,8,1,869,FALSE,"Russian"
"1281","59f096e47f3d71000171e46b",127,"yes","browns",7,9,1,900.599999904633,FALSE,"Russian"
"1291","59f096e47f3d71000171e46b",128,"yes","yellows",15,17,1,1064.79999995232,FALSE,"Russian"
"1301","59f096e47f3d71000171e46b",129,"yes","blues",8,10,1,895.099999904633,TRUE,"Russian"
"1311","59f096e47f3d71000171e46b",130,"yes","blues",20,18,1,3010.10000014305,FALSE,"Russian"
"1321","59f096e47f3d71000171e46b",131,"yes","browns",5,7,0,1335.29999995232,FALSE,"Russian"
"1331","59f096e47f3d71000171e46b",132,"yes","reds",10,12,0,2274.59999990463,TRUE,"Russian"
"1341","59f096e47f3d71000171e46b",133,"yes","yellows",17,15,1,838.099999904633,FALSE,"Russian"
"1351","59f096e47f3d71000171e46b",134,"yes","reds",17,19,1,3058.90000009537,FALSE,"Russian"
"1361","59f096e47f3d71000171e46b",135,"yes","yellows",18,16,1,1964.59999990463,FALSE,"Russian"
"1371","59f096e47f3d71000171e46b",136,"yes","yellows",10,8,1,1511.5,TRUE,"Russian"
"1381","59f096e47f3d71000171e46b",137,"yes","reds",17,15,0,1954.60000014305,FALSE,"Russian"
"1391","59f096e47f3d71000171e46b",138,"yes","blues",6,8,1,784.900000095367,FALSE,"Russian"
"1401","59f096e47f3d71000171e46b",139,"yes","browns",7,5,1,673.200000047684,FALSE,"Russian"
"1411","59f096e47f3d71000171e46b",140,"yes","blues",8,6,0,830.400000095367,FALSE,"Russian"
"1421","59f096e47f3d71000171e46b",141,"yes","yellows",7,9,1,1415.70000004768,TRUE,"Russian"
"1431","59f096e47f3d71000171e46b",142,"yes","blues",13,15,1,1368.60000014305,FALSE,"Russian"
"1441","59f096e47f3d71000171e46b",143,"yes","browns",6,4,1,830.5,FALSE,"Russian"
"1451","59f096e47f3d71000171e46b",144,"yes","yellows",17,19,0,799.5,TRUE,"Russian"
"1461","59f096e47f3d71000171e46b",145,"yes","yellows",6,8,1,2203.39999985695,FALSE,"Russian"
"1471","59f096e47f3d71000171e46b",146,"yes","blues",13,11,1,1581.70000004768,FALSE,"Russian"
"1481","59f096e47f3d71000171e46b",147,"yes","yellows",8,6,1,1987.39999985695,FALSE,"Russian"
"1491","59f096e47f3d71000171e46b",148,"yes","reds",4,2,1,1428.09999990463,FALSE,"Russian"
"1501","59f096e47f3d71000171e46b",149,"yes","blues",6,4,1,1055.60000014305,FALSE,"Russian"
"1511","59f096e47f3d71000171e46b",150,"yes","blues",16,14,1,632.5,FALSE,"Russian"
"1521","59f096e47f3d71000171e46b",151,"yes","blues",16,14,1,660.200000047684,FALSE,"Russian"
"1531","59f096e47f3d71000171e46b",152,"yes","reds",12,10,1,1299.40000009537,TRUE,"Russian"
"1541","59f096e47f3d71000171e46b",153,"yes","yellows",17,19,1,1469.70000004768,TRUE,"Russian"
"1551","59f096e47f3d71000171e46b",154,"yes","yellows",8,10,1,1564.70000004768,TRUE,"Russian"
"1561","59f096e47f3d71000171e46b",155,"yes","browns",8,6,1,2023.5,FALSE,"Russian"
"1571","59f096e47f3d71000171e46b",156,"yes","blues",12,10,1,813.099999904633,TRUE,"Russian"
"1591","59f096e47f3d71000171e46b",158,"yes","yellows",19,17,1,509.299999952316,TRUE,"Russian"
"1601","59f096e47f3d71000171e46b",159,"yes","yellows",13,15,1,769.5,FALSE,"Russian"
"1611","59f096e47f3d71000171e46b",160,"yes","yellows",3,1,1,1042.20000004768,FALSE,"Russian"
"1621","59f096e47f3d71000171e46b",161,"yes","browns",12,10,1,828.400000095367,FALSE,"Russian"
"1631","59f096e47f3d71000171e46b",162,"yes","yellows",9,7,1,808,TRUE,"Russian"
"1641","59f096e47f3d71000171e46b",163,"yes","browns",12,10,1,674.599999904633,FALSE,"Russian"
"1651","59f096e47f3d71000171e46b",164,"yes","browns",11,9,1,683,FALSE,"Russian"
"1661","59f096e47f3d71000171e46b",165,"yes","yellows",16,14,1,749.399999856949,FALSE,"Russian"
"1671","59f096e47f3d71000171e46b",166,"yes","browns",14,12,1,571.800000190735,TRUE,"Russian"
"1681","59f096e47f3d71000171e46b",167,"yes","reds",12,10,1,993.5,TRUE,"Russian"
"1691","59f096e47f3d71000171e46b",168,"yes","reds",5,3,1,1967.59999990463,FALSE,"Russian"
"1701","59f096e47f3d71000171e46b",169,"yes","yellows",3,1,1,1231.89999985695,FALSE,"Russian"
"1711","59f096e47f3d71000171e46b",170,"yes","blues",17,15,1,793.200000047684,FALSE,"Russian"
"1721","59f096e47f3d71000171e46b",171,"yes","reds",5,7,1,1463.59999990463,FALSE,"Russian"
"1731","59f096e47f3d71000171e46b",172,"yes","yellows",12,14,0,1143.29999995232,FALSE,"Russian"
"1741","59f096e47f3d71000171e46b",173,"yes","reds",11,13,1,1386.39999985695,TRUE,"Russian"
"1751","59f096e47f3d71000171e46b",174,"yes","browns",13,11,1,1050.09999990463,TRUE,"Russian"
"1761","59f096e47f3d71000171e46b",175,"yes","blues",14,12,1,907.700000047684,FALSE,"Russian"
"1771","59f096e47f3d71000171e46b",176,"yes","reds",11,13,1,1633.5,TRUE,"Russian"
"1781","59f096e47f3d71000171e46b",177,"yes","browns",15,17,0,794.200000047684,FALSE,"Russian"
"1791","59f096e47f3d71000171e46b",178,"yes","blues",10,12,1,1419.20000004768,TRUE,"Russian"
"1801","59f096e47f3d71000171e46b",179,"yes","blues",12,14,1,1209.20000004768,FALSE,"Russian"
"1811","59f096e47f3d71000171e46b",180,"yes","reds",9,7,0,1534,FALSE,"Russian"
"1821","59f096e47f3d71000171e46b",181,"yes","browns",13,11,1,946.400000095367,TRUE,"Russian"
"1831","59f096e47f3d71000171e46b",182,"yes","browns",11,9,1,929.899999856949,FALSE,"Russian"
"1841","59f096e47f3d71000171e46b",183,"yes","yellows",3,5,1,2052.90000009537,FALSE,"Russian"
"1851","59f096e47f3d71000171e46b",184,"yes","blues",8,10,1,1022.29999995232,TRUE,"Russian"
"1861","59f096e47f3d71000171e46b",185,"yes","yellows",8,10,1,2788.39999985695,TRUE,"Russian"
"1871","59f096e47f3d71000171e46b",186,"yes","browns",3,5,1,1102.69999980927,FALSE,"Russian"
"1881","59f096e47f3d71000171e46b",187,"yes","blues",19,17,1,1167.29999995232,FALSE,"Russian"
"1891","59f096e47f3d71000171e46b",188,"yes","reds",15,13,1,2097.70000004768,FALSE,"Russian"
"1901","59f096e47f3d71000171e46b",189,"yes","browns",13,15,1,1707.89999985695,TRUE,"Russian"
"1911","59f096e47f3d71000171e46b",190,"yes","browns",1,3,1,1426.29999995232,FALSE,"Russian"
"1921","59f096e47f3d71000171e46b",191,"yes","reds",3,1,1,1413.40000009537,FALSE,"Russian"
"1931","59f096e47f3d71000171e46b",192,"yes","blues",14,16,0,791,FALSE,"Russian"
"1941","59f096e47f3d71000171e46b",193,"yes","reds",15,17,0,2835.09999990463,FALSE,"Russian"
"1951","59f096e47f3d71000171e46b",194,"yes","browns",7,9,0,818,FALSE,"Russian"
"1961","59f096e47f3d71000171e46b",195,"yes","browns",8,10,1,2179,FALSE,"Russian"
"1971","59f096e47f3d71000171e46b",196,"yes","yellows",4,2,1,1111.20000004768,FALSE,"Russian"
"1981","59f096e47f3d71000171e46b",197,"yes","yellows",11,13,0,1290.40000009537,FALSE,"Russian"
"1991","59f096e47f3d71000171e46b",198,"yes","reds",10,8,1,2153.09999990463,FALSE,"Russian"
"2001","59f096e47f3d71000171e46b",199,"yes","blues",5,7,1,868,FALSE,"Russian"
"2011","59f096e47f3d71000171e46b",200,"yes","browns",16,14,1,682,FALSE,"Russian"
"2021","59f096e47f3d71000171e46b",201,"yes","reds",8,10,0,686.599999904633,FALSE,"Russian"
"2031","59f096e47f3d71000171e46b",202,"yes","blues",14,12,1,725.399999856949,FALSE,"Russian"
"2041","59f096e47f3d71000171e46b",203,"yes","reds",13,11,1,698.5,TRUE,"Russian"
"2051","59f096e47f3d71000171e46b",204,"yes","browns",20,18,1,893.299999952316,FALSE,"Russian"
"2061","59f096e47f3d71000171e46b",205,"yes","yellows",2,4,1,2051.59999990463,FALSE,"Russian"
"2071","59f096e47f3d71000171e46b",206,"yes","reds",13,15,1,2118.29999995232,FALSE,"Russian"
"2081","59f096e47f3d71000171e46b",207,"yes","yellows",2,4,1,1965.39999985695,FALSE,"Russian"
"2101","59f096e47f3d71000171e46b",209,"yes","reds",11,9,1,537.400000095367,FALSE,"Russian"
"2111","59f096e47f3d71000171e46b",210,"yes","reds",3,1,0,1148.09999990463,FALSE,"Russian"
"2121","59f096e47f3d71000171e46b",211,"yes","browns",6,4,1,719.200000047684,FALSE,"Russian"
"2131","59f096e47f3d71000171e46b",212,"yes","reds",10,8,1,722,FALSE,"Russian"
"2141","59f096e47f3d71000171e46b",213,"yes","yellows",3,5,1,1322.19999980927,FALSE,"Russian"
"2151","59f096e47f3d71000171e46b",214,"yes","yellows",1,3,1,924.700000047684,FALSE,"Russian"
"2161","59f096e47f3d71000171e46b",215,"yes","browns",18,16,1,711.699999809265,FALSE,"Russian"
"2171","59f096e47f3d71000171e46b",216,"yes","yellows",12,10,1,653.599999904633,FALSE,"Russian"
"2181","59f096e47f3d71000171e46b",217,"yes","blues",17,19,0,1060.40000009537,FALSE,"Russian"
"2191","59f096e47f3d71000171e46b",218,"yes","browns",5,7,0,936.800000190735,FALSE,"Russian"
"2201","59f096e47f3d71000171e46b",219,"yes","browns",5,3,1,690.200000047684,FALSE,"Russian"
"2211","59f096e47f3d71000171e46b",220,"yes","yellows",14,16,0,1054.70000004768,FALSE,"Russian"
"2221","59f096e47f3d71000171e46b",221,"yes","yellows",10,12,1,671.799999952316,FALSE,"Russian"
"2231","59f096e47f3d71000171e46b",222,"yes","browns",3,1,0,1263.40000009537,FALSE,"Russian"
"2241","59f096e47f3d71000171e46b",223,"yes","blues",7,9,1,779.199999809265,FALSE,"Russian"
"2251","59f096e47f3d71000171e46b",224,"yes","browns",20,18,1,620.399999856949,FALSE,"Russian"
"2261","59f096e47f3d71000171e46b",225,"yes","reds",4,6,1,1243.19999980927,FALSE,"Russian"
"2271","59f096e47f3d71000171e46b",226,"yes","yellows",4,2,1,1825.20000004768,FALSE,"Russian"
"2281","59f096e47f3d71000171e46b",227,"yes","browns",4,6,0,865.600000143051,FALSE,"Russian"
"2291","59f096e47f3d71000171e46b",228,"yes","reds",16,18,1,1930.70000004768,FALSE,"Russian"
"2301","59f096e47f3d71000171e46b",229,"yes","reds",7,9,1,1434.90000009537,FALSE,"Russian"
"2311","59f096e47f3d71000171e46b",230,"yes","browns",8,10,1,1488.09999990463,FALSE,"Russian"
"2321","59f096e47f3d71000171e46b",231,"yes","reds",2,4,1,1593.60000014305,FALSE,"Russian"
"2331","59f096e47f3d71000171e46b",232,"yes","yellows",9,11,1,1049.59999990463,FALSE,"Russian"
"2341","59f096e47f3d71000171e46b",233,"yes","browns",4,2,1,851.100000143051,FALSE,"Russian"
"2351","59f096e47f3d71000171e46b",234,"yes","reds",1,3,1,1691.89999985695,FALSE,"Russian"
"2361","59f096e47f3d71000171e46b",235,"yes","browns",16,18,1,2259.89999985695,FALSE,"Russian"
"2371","59f096e47f3d71000171e46b",236,"yes","blues",4,2,1,1546.79999995232,FALSE,"Russian"
"2381","59f096e47f3d71000171e46b",237,"yes","blues",15,17,1,2130.5,FALSE,"Russian"
"2391","59f096e47f3d71000171e46b",238,"yes","yellows",9,7,1,830.299999952316,TRUE,"Russian"
"2401","59f096e47f3d71000171e46b",239,"yes","blues",3,1,1,1250,FALSE,"Russian"
"2411","59f096e47f3d71000171e46b",240,"yes","blues",2,4,1,979.099999904633,FALSE,"Russian"
"2421","59f096e47f3d71000171e46b",241,"yes","yellows",14,12,1,957,FALSE,"Russian"
"2431","59f096e47f3d71000171e46b",242,"yes","yellows",16,14,0,2126.70000004768,FALSE,"Russian"
"2441","59f096e47f3d71000171e46b",243,"yes","reds",14,16,0,2340.79999995232,FALSE,"Russian"
"2451","59f096e47f3d71000171e46b",244,"yes","reds",5,7,1,1372.09999990463,FALSE,"Russian"
"2461","59f096e47f3d71000171e46b",245,"yes","reds",3,5,1,3046.20000004768,FALSE,"Russian"
"2471","59f096e47f3d71000171e46b",246,"yes","blues",3,5,1,676,FALSE,"Russian"
"2481","59f096e47f3d71000171e46b",247,"yes","reds",17,15,1,750.899999856949,FALSE,"Russian"
"2491","59f096e47f3d71000171e46b",248,"yes","reds",6,8,1,1486.70000004768,FALSE,"Russian"
"2501","59f096e47f3d71000171e46b",249,"yes","blues",5,3,1,1076.29999995232,FALSE,"Russian"
"2511","59f096e47f3d71000171e46b",250,"yes","browns",7,5,1,2380.39999985695,FALSE,"Russian"
"2521","59f096e47f3d71000171e46b",251,"yes","browns",18,20,0,1384,FALSE,"Russian"
"2531","59f096e47f3d71000171e46b",252,"yes","yellows",7,9,0,1144.29999995232,TRUE,"Russian"
"2541","59f096e47f3d71000171e46b",253,"yes","browns",3,5,1,1740,FALSE,"Russian"
"2551","59f096e47f3d71000171e46b",254,"yes","blues",5,7,1,1136.29999995232,FALSE,"Russian"
"2561","59f096e47f3d71000171e46b",255,"yes","browns",2,4,1,1353.5,FALSE,"Russian"
"2571","59f096e47f3d71000171e46b",256,"yes","blues",18,16,1,940,FALSE,"Russian"
"2581","59f096e47f3d71000171e46b",257,"yes","browns",2,4,1,1880,FALSE,"Russian"
"2591","59f096e47f3d71000171e46b",258,"yes","yellows",5,3,1,1726.70000004768,FALSE,"Russian"
"2611","59f096e47f3d71000171e46b",260,"yes","reds",6,8,1,681.200000047684,FALSE,"Russian"
"2621","59f096e47f3d71000171e46b",261,"yes","yellows",13,15,0,737.199999809265,FALSE,"Russian"
"2631","59f096e47f3d71000171e46b",262,"yes","blues",16,18,1,1847,FALSE,"Russian"
"2641","59f096e47f3d71000171e46b",263,"yes","blues",5,3,1,911.5,FALSE,"Russian"
"2651","59f096e47f3d71000171e46b",264,"yes","blues",9,7,1,688.299999952316,FALSE,"Russian"
"2661","59f096e47f3d71000171e46b",265,"yes","blues",4,6,1,775.399999856949,FALSE,"Russian"
"2671","59f096e47f3d71000171e46b",266,"yes","browns",3,1,1,723.899999856949,FALSE,"Russian"
"2681","59f096e47f3d71000171e46b",267,"yes","reds",20,18,1,1224,FALSE,"Russian"
"2691","59f096e47f3d71000171e46b",268,"yes","reds",13,11,1,1218.70000004768,TRUE,"Russian"
"2701","59f096e47f3d71000171e46b",269,"yes","blues",18,20,1,2823.29999995232,FALSE,"Russian"
"2711","59f096e47f3d71000171e46b",270,"yes","blues",7,5,1,1281.70000004768,FALSE,"Russian"
"2721","59f096e47f3d71000171e46b",271,"yes","reds",18,16,0,2324.09999990463,FALSE,"Russian"
"2731","59f096e47f3d71000171e46b",272,"yes","blues",1,3,1,1282,FALSE,"Russian"
"2741","59f096e47f3d71000171e46b",273,"yes","yellows",5,3,1,1076.20000004768,FALSE,"Russian"
"2751","59f096e47f3d71000171e46b",274,"yes","yellows",15,13,1,825.200000047684,FALSE,"Russian"
"2761","59f096e47f3d71000171e46b",275,"yes","blues",9,11,1,1695.20000004768,TRUE,"Russian"
"2771","59f096e47f3d71000171e46b",276,"yes","blues",10,8,1,893.599999904633,TRUE,"Russian"
"2781","59f096e47f3d71000171e46b",277,"yes","browns",6,8,0,1871.70000004768,FALSE,"Russian"
"2791","59f096e47f3d71000171e46b",278,"yes","browns",10,12,0,1103.19999980927,FALSE,"Russian"
"2801","59f096e47f3d71000171e46b",279,"yes","blues",9,7,1,788.100000143051,FALSE,"Russian"
"2811","59f096e47f3d71000171e46b",280,"yes","yellows",20,18,1,691.699999809265,FALSE,"Russian"
"2821","59f096e47f3d71000171e46b",281,"yes","reds",3,5,1,2498.40000009537,FALSE,"Russian"
"2831","59f096e47f3d71000171e46b",282,"yes","browns",9,7,1,1487.5,FALSE,"Russian"
"2841","59f096e47f3d71000171e46b",283,"yes","yellows",16,18,1,2111.69999980927,FALSE,"Russian"
"2851","59f096e47f3d71000171e46b",284,"yes","blues",15,13,1,983.799999952316,FALSE,"Russian"
"2861","59f096e47f3d71000171e46b",285,"yes","browns",12,14,1,1049.69999980927,TRUE,"Russian"
"2871","59f096e47f3d71000171e46b",286,"yes","reds",16,14,0,3177.09999990463,FALSE,"Russian"
"2881","59f096e47f3d71000171e46b",287,"yes","reds",9,11,1,1129.90000009537,FALSE,"Russian"
"2891","59f096e47f3d71000171e46b",288,"yes","yellows",6,8,1,1202.59999990463,FALSE,"Russian"
"2901","59f096e47f3d71000171e46b",289,"yes","blues",17,19,1,1743.09999990463,FALSE,"Russian"
"2911","59f096e47f3d71000171e46b",290,"yes","reds",18,20,1,4248.5,FALSE,"Russian"
"2921","59f096e47f3d71000171e46b",291,"yes","browns",8,6,1,765.900000095367,FALSE,"Russian"
"2931","59f096e47f3d71000171e46b",292,"yes","blues",4,2,1,1010.79999995232,FALSE,"Russian"
"2941","59f096e47f3d71000171e46b",293,"yes","blues",13,11,0,975.299999952316,FALSE,"Russian"
"2951","59f096e47f3d71000171e46b",294,"yes","blues",9,11,1,1114.90000009537,TRUE,"Russian"
"2961","59f096e47f3d71000171e46b",295,"yes","reds",11,9,0,4374.20000004768,FALSE,"Russian"
"2971","59f096e47f3d71000171e46b",296,"yes","blues",10,12,0,1407.69999980927,TRUE,"Russian"
"2981","59f096e47f3d71000171e46b",297,"yes","browns",11,13,0,836.900000095367,TRUE,"Russian"
"2991","59f096e47f3d71000171e46b",298,"yes","reds",6,4,1,697.899999856949,FALSE,"Russian"
"712","5a28738fb4a5de00011af471",6,"yes","yellows",6,8,0,1893.80000001192,FALSE,"Russian"
"812","5a28738fb4a5de00011af471",7,"yes","reds",7,9,1,2799.5,FALSE,"Russian"
"912","5a28738fb4a5de00011af471",8,"yes","browns",16,14,1,1829.60000002384,FALSE,"Russian"
"1010","5a28738fb4a5de00011af471",9,"yes","yellows",13,15,1,1524.40000003576,TRUE,"Russian"
"1112","5a28738fb4a5de00011af471",10,"yes","yellows",9,11,1,1166.19999998808,FALSE,"Russian"
"1212","5a28738fb4a5de00011af471",11,"yes","blues",14,16,1,1266.69999998808,FALSE,"Russian"
"1312","5a28738fb4a5de00011af471",12,"yes","blues",10,8,1,1792.09999996424,FALSE,"Russian"
"1412","5a28738fb4a5de00011af471",13,"yes","yellows",3,1,1,1432,FALSE,"Russian"
"1510","5a28738fb4a5de00011af471",14,"yes","reds",5,3,1,1538.19999998808,FALSE,"Russian"
"1612","5a28738fb4a5de00011af471",15,"yes","reds",3,5,1,1234.80000001192,FALSE,"Russian"
"1712","5a28738fb4a5de00011af471",16,"yes","yellows",11,13,1,1329.80000001192,TRUE,"Russian"
"1812","5a28738fb4a5de00011af471",17,"yes","yellows",5,3,1,1791.90000003576,FALSE,"Russian"
"1912","5a28738fb4a5de00011af471",18,"yes","yellows",12,10,1,1252.5,FALSE,"Russian"
"2010","5a28738fb4a5de00011af471",19,"yes","blues",9,7,1,1602.89999997616,FALSE,"Russian"
"2112","5a28738fb4a5de00011af471",20,"yes","browns",6,8,1,1298.5,FALSE,"Russian"
"2212","5a28738fb4a5de00011af471",21,"yes","browns",11,9,1,1767,FALSE,"Russian"
"2312","5a28738fb4a5de00011af471",22,"yes","yellows",15,17,1,1347.5,FALSE,"Russian"
"2412","5a28738fb4a5de00011af471",23,"yes","browns",16,18,1,2338.39999997616,FALSE,"Russian"
"2512","5a28738fb4a5de00011af471",24,"yes","blues",11,13,1,1774.19999998808,FALSE,"Russian"
"2612","5a28738fb4a5de00011af471",25,"yes","reds",8,6,1,1876.59999996424,FALSE,"Russian"
"2712","5a28738fb4a5de00011af471",26,"yes","blues",18,16,0,1606.5,FALSE,"Russian"
"2812","5a28738fb4a5de00011af471",27,"yes","reds",18,16,0,3108.19999998808,FALSE,"Russian"
"2912","5a28738fb4a5de00011af471",28,"yes","browns",14,12,1,1657.89999997616,TRUE,"Russian"
"302","5a28738fb4a5de00011af471",29,"yes","yellows",13,11,1,1296.19999998808,TRUE,"Russian"
"312","5a28738fb4a5de00011af471",30,"yes","blues",8,6,1,1245.30000001192,FALSE,"Russian"
"322","5a28738fb4a5de00011af471",31,"yes","reds",10,12,0,1110,TRUE,"Russian"
"332","5a28738fb4a5de00011af471",32,"yes","reds",2,4,1,1382.29999995232,FALSE,"Russian"
"342","5a28738fb4a5de00011af471",33,"yes","browns",3,1,1,1361.30000001192,FALSE,"Russian"
"352","5a28738fb4a5de00011af471",34,"yes","yellows",20,18,1,1396,FALSE,"Russian"
"362","5a28738fb4a5de00011af471",35,"yes","yellows",8,10,1,1370.19999998808,FALSE,"Russian"
"372","5a28738fb4a5de00011af471",36,"yes","reds",9,11,0,1378.69999998808,FALSE,"Russian"
"382","5a28738fb4a5de00011af471",37,"yes","reds",8,10,0,1143.90000003576,FALSE,"Russian"
"392","5a28738fb4a5de00011af471",38,"yes","yellows",18,16,1,1562.90000003576,FALSE,"Russian"
"402","5a28738fb4a5de00011af471",39,"yes","blues",7,9,1,1694.5,FALSE,"Russian"
"412","5a28738fb4a5de00011af471",40,"yes","yellows",6,8,1,964.300000011921,FALSE,"Russian"
"422","5a28738fb4a5de00011af471",41,"yes","yellows",12,10,1,1536.10000002384,FALSE,"Russian"
"432","5a28738fb4a5de00011af471",42,"yes","reds",19,17,1,1565.30000001192,FALSE,"Russian"
"442","5a28738fb4a5de00011af471",43,"yes","yellows",5,3,1,1495.70000004768,FALSE,"Russian"
"452","5a28738fb4a5de00011af471",44,"yes","blues",3,5,1,1700.19999998808,FALSE,"Russian"
"462","5a28738fb4a5de00011af471",45,"yes","blues",5,3,1,1119,FALSE,"Russian"
"472","5a28738fb4a5de00011af471",46,"yes","reds",11,13,0,1122.69999998808,TRUE,"Russian"
"482","5a28738fb4a5de00011af471",47,"yes","browns",10,8,0,1223.20000004768,FALSE,"Russian"
"492","5a28738fb4a5de00011af471",48,"yes","yellows",14,12,1,925.300000011921,TRUE,"Russian"
"502","5a28738fb4a5de00011af471",49,"yes","browns",6,4,1,1515.30000001192,FALSE,"Russian"
"512","5a28738fb4a5de00011af471",50,"yes","blues",7,5,1,1050.39999997616,FALSE,"Russian"
"522","5a28738fb4a5de00011af471",51,"yes","reds",18,20,0,1305.30000001192,FALSE,"Russian"
"532","5a28738fb4a5de00011af471",52,"yes","blues",5,3,1,1105.29999995232,FALSE,"Russian"
"542","5a28738fb4a5de00011af471",53,"yes","blues",9,7,1,835.599999964237,FALSE,"Russian"
"552","5a28738fb4a5de00011af471",54,"yes","browns",15,13,1,1189.5,TRUE,"Russian"
"572","5a28738fb4a5de00011af471",56,"yes","yellows",7,9,1,2632.5,FALSE,"Russian"
"582","5a28738fb4a5de00011af471",57,"yes","yellows",18,20,1,1160.60000002384,FALSE,"Russian"
"592","5a28738fb4a5de00011af471",58,"yes","yellows",7,9,1,3345.90000003576,FALSE,"Russian"
"602","5a28738fb4a5de00011af471",59,"yes","reds",17,19,1,1278.5,FALSE,"Russian"
"612","5a28738fb4a5de00011af471",60,"yes","blues",4,2,1,1031.30000001192,FALSE,"Russian"
"622","5a28738fb4a5de00011af471",61,"yes","blues",2,4,1,1226.60000002384,FALSE,"Russian"
"632","5a28738fb4a5de00011af471",62,"yes","reds",16,18,0,1210.60000002384,FALSE,"Russian"
"642","5a28738fb4a5de00011af471",63,"yes","yellows",16,18,1,1535.20000004768,FALSE,"Russian"
"652","5a28738fb4a5de00011af471",64,"yes","blues",3,5,1,832.199999988079,FALSE,"Russian"
"662","5a28738fb4a5de00011af471",65,"yes","browns",13,15,1,1187.69999998808,TRUE,"Russian"
"672","5a28738fb4a5de00011af471",66,"yes","browns",3,1,1,1173.90000003576,FALSE,"Russian"
"682","5a28738fb4a5de00011af471",67,"yes","blues",3,1,1,1592.5,FALSE,"Russian"
"692","5a28738fb4a5de00011af471",68,"yes","browns",16,14,1,685.899999976158,FALSE,"Russian"
"702","5a28738fb4a5de00011af471",69,"yes","browns",19,17,1,1470.80000001192,FALSE,"Russian"
"713","5a28738fb4a5de00011af471",70,"yes","blues",16,14,1,713.599999964237,FALSE,"Russian"
"722","5a28738fb4a5de00011af471",71,"yes","browns",1,3,1,1690.59999996424,FALSE,"Russian"
"732","5a28738fb4a5de00011af471",72,"yes","blues",13,11,1,1163.90000003576,FALSE,"Russian"
"742","5a28738fb4a5de00011af471",73,"yes","reds",9,7,1,750.400000035763,FALSE,"Russian"
"752","5a28738fb4a5de00011af471",74,"yes","blues",6,4,1,1057.5,FALSE,"Russian"
"762","5a28738fb4a5de00011af471",75,"yes","browns",12,14,1,1868.19999998808,TRUE,"Russian"
"772","5a28738fb4a5de00011af471",76,"yes","yellows",5,7,1,787.300000011921,FALSE,"Russian"
"782","5a28738fb4a5de00011af471",77,"yes","browns",15,17,0,914.300000011921,FALSE,"Russian"
"792","5a28738fb4a5de00011af471",78,"yes","yellows",6,4,1,1494.10000002384,FALSE,"Russian"
"802","5a28738fb4a5de00011af471",79,"yes","reds",13,11,1,1006.09999996424,TRUE,"Russian"
"813","5a28738fb4a5de00011af471",80,"yes","browns",9,11,1,1253,FALSE,"Russian"
"822","5a28738fb4a5de00011af471",81,"yes","blues",18,20,1,1233.30000001192,FALSE,"Russian"
"832","5a28738fb4a5de00011af471",82,"yes","yellows",9,7,1,1020.80000001192,FALSE,"Russian"
"842","5a28738fb4a5de00011af471",83,"yes","yellows",10,8,0,844.699999988079,FALSE,"Russian"
"852","5a28738fb4a5de00011af471",84,"yes","yellows",18,16,1,913,FALSE,"Russian"
"862","5a28738fb4a5de00011af471",85,"yes","browns",10,12,1,1216.20000004768,TRUE,"Russian"
"872","5a28738fb4a5de00011af471",86,"yes","blues",8,10,1,868.199999988079,FALSE,"Russian"
"882","5a28738fb4a5de00011af471",87,"yes","reds",6,4,0,1103.19999998808,FALSE,"Russian"
"892","5a28738fb4a5de00011af471",88,"yes","browns",18,20,1,1791.5,FALSE,"Russian"
"902","5a28738fb4a5de00011af471",89,"yes","blues",16,18,1,2905.80000001192,FALSE,"Russian"
"913","5a28738fb4a5de00011af471",90,"yes","browns",11,9,1,1265.70000004768,FALSE,"Russian"
"922","5a28738fb4a5de00011af471",91,"yes","blues",16,18,1,1636,FALSE,"Russian"
"932","5a28738fb4a5de00011af471",92,"yes","browns",6,8,1,1392.10000002384,FALSE,"Russian"
"942","5a28738fb4a5de00011af471",93,"yes","browns",18,20,1,1556.09999996424,FALSE,"Russian"
"952","5a28738fb4a5de00011af471",94,"yes","yellows",14,16,1,1899.30000001192,FALSE,"Russian"
"962","5a28738fb4a5de00011af471",95,"yes","browns",17,19,1,915.300000011921,FALSE,"Russian"
"972","5a28738fb4a5de00011af471",96,"yes","reds",11,9,1,806.100000023842,FALSE,"Russian"
"982","5a28738fb4a5de00011af471",97,"yes","reds",15,17,0,737,FALSE,"Russian"
"992","5a28738fb4a5de00011af471",98,"yes","yellows",9,7,1,2323,FALSE,"Russian"
"1002","5a28738fb4a5de00011af471",99,"yes","yellows",15,13,1,1186,TRUE,"Russian"
"1012","5a28738fb4a5de00011af471",100,"yes","reds",20,18,1,1510,FALSE,"Russian"
"1022","5a28738fb4a5de00011af471",101,"yes","yellows",10,12,1,908.800000011921,FALSE,"Russian"
"1032","5a28738fb4a5de00011af471",102,"yes","blues",15,17,0,752.800000011921,FALSE,"Russian"
"1042","5a28738fb4a5de00011af471",103,"yes","blues",18,16,1,688.700000047684,FALSE,"Russian"
"1052","5a28738fb4a5de00011af471",104,"yes","yellows",2,4,1,1321.19999998808,FALSE,"Russian"
"1062","5a28738fb4a5de00011af471",105,"yes","reds",14,12,1,1511.10000002384,TRUE,"Russian"
"1082","5a28738fb4a5de00011af471",107,"yes","yellows",16,14,1,2967.5,FALSE,"Russian"
"1092","5a28738fb4a5de00011af471",108,"yes","reds",20,18,0,1572.80000001192,FALSE,"Russian"
"1102","5a28738fb4a5de00011af471",109,"yes","reds",6,8,1,1047.29999995232,FALSE,"Russian"
"1113","5a28738fb4a5de00011af471",110,"yes","blues",14,12,1,3927.10000002384,TRUE,"Russian"
"1122","5a28738fb4a5de00011af471",111,"yes","yellows",11,9,1,955.899999976158,FALSE,"Russian"
"1132","5a28738fb4a5de00011af471",112,"yes","yellows",17,15,1,978.5,FALSE,"Russian"
"1142","5a28738fb4a5de00011af471",113,"yes","yellows",11,13,1,922.399999976158,TRUE,"Russian"
"1152","5a28738fb4a5de00011af471",114,"yes","blues",17,19,1,1227.40000003576,FALSE,"Russian"
"1162","5a28738fb4a5de00011af471",115,"yes","blues",6,4,1,1330.10000002384,FALSE,"Russian"
"1172","5a28738fb4a5de00011af471",116,"yes","browns",6,4,1,1145.30000001192,FALSE,"Russian"
"1182","5a28738fb4a5de00011af471",117,"yes","reds",5,7,1,1134.5,FALSE,"Russian"
"1192","5a28738fb4a5de00011af471",118,"yes","browns",7,5,1,1262.30000001192,FALSE,"Russian"
"1202","5a28738fb4a5de00011af471",119,"yes","blues",19,17,1,1609.80000001192,FALSE,"Russian"
"1213","5a28738fb4a5de00011af471",120,"yes","browns",5,7,1,1938.40000003576,FALSE,"Russian"
"1222","5a28738fb4a5de00011af471",121,"yes","reds",16,14,1,1795.39999997616,FALSE,"Russian"
"1232","5a28738fb4a5de00011af471",122,"yes","reds",5,7,1,1353.39999997616,FALSE,"Russian"
"1242","5a28738fb4a5de00011af471",123,"yes","yellows",12,14,1,882.599999964237,TRUE,"Russian"
"1252","5a28738fb4a5de00011af471",124,"yes","yellows",15,17,1,1004.5,FALSE,"Russian"
"1262","5a28738fb4a5de00011af471",125,"yes","yellows",13,15,0,1456.60000002384,TRUE,"Russian"
"1272","5a28738fb4a5de00011af471",126,"yes","blues",13,11,1,1084.30000001192,FALSE,"Russian"
"1282","5a28738fb4a5de00011af471",127,"yes","yellows",5,7,1,1304.5,FALSE,"Russian"
"1292","5a28738fb4a5de00011af471",128,"yes","blues",12,10,0,1132,FALSE,"Russian"
"1302","5a28738fb4a5de00011af471",129,"yes","reds",9,11,1,1464.39999997616,FALSE,"Russian"
"1313","5a28738fb4a5de00011af471",130,"yes","browns",8,10,1,1546.89999997616,FALSE,"Russian"
"1322","5a28738fb4a5de00011af471",131,"yes","reds",2,4,1,909.600000023842,FALSE,"Russian"
"1332","5a28738fb4a5de00011af471",132,"yes","browns",14,12,1,1181.69999998808,TRUE,"Russian"
"1342","5a28738fb4a5de00011af471",133,"yes","browns",9,7,0,1049.89999997616,FALSE,"Russian"
"1352","5a28738fb4a5de00011af471",134,"yes","blues",10,8,1,1477.5,FALSE,"Russian"
"1362","5a28738fb4a5de00011af471",135,"yes","browns",5,3,1,730.899999976158,FALSE,"Russian"
"1372","5a28738fb4a5de00011af471",136,"yes","browns",15,13,1,1003.59999996424,TRUE,"Russian"
"1382","5a28738fb4a5de00011af471",137,"yes","yellows",12,14,1,1022.69999998808,TRUE,"Russian"
"1392","5a28738fb4a5de00011af471",138,"yes","browns",4,6,1,933.5,FALSE,"Russian"
"1402","5a28738fb4a5de00011af471",139,"yes","yellows",3,1,1,848.800000011921,FALSE,"Russian"
"1413","5a28738fb4a5de00011af471",140,"yes","reds",14,16,1,1571,FALSE,"Russian"
"1422","5a28738fb4a5de00011af471",141,"yes","blues",11,9,1,1099.09999996424,FALSE,"Russian"
"1432","5a28738fb4a5de00011af471",142,"yes","browns",2,4,1,2045.69999998808,FALSE,"Russian"
"1442","5a28738fb4a5de00011af471",143,"yes","yellows",17,19,1,1963.69999998808,FALSE,"Russian"
"1452","5a28738fb4a5de00011af471",144,"yes","yellows",18,20,1,831.199999988079,FALSE,"Russian"
"1462","5a28738fb4a5de00011af471",145,"yes","reds",17,15,1,1764.19999998808,FALSE,"Russian"
"1472","5a28738fb4a5de00011af471",146,"yes","browns",18,16,1,812.5,FALSE,"Russian"
"1482","5a28738fb4a5de00011af471",147,"yes","yellows",8,6,1,1355.10000002384,FALSE,"Russian"
"1492","5a28738fb4a5de00011af471",148,"yes","browns",9,11,0,1180.10000002384,FALSE,"Russian"
"1502","5a28738fb4a5de00011af471",149,"yes","blues",17,15,0,1513.10000002384,FALSE,"Russian"
"1512","5a28738fb4a5de00011af471",150,"yes","yellows",16,18,1,1790.30000001192,FALSE,"Russian"
"1522","5a28738fb4a5de00011af471",151,"yes","blues",8,6,1,1464,FALSE,"Russian"
"1532","5a28738fb4a5de00011af471",152,"yes","reds",9,7,1,1092.5,FALSE,"Russian"
"1542","5a28738fb4a5de00011af471",153,"yes","blues",12,14,1,1259.10000002384,TRUE,"Russian"
"1552","5a28738fb4a5de00011af471",154,"yes","reds",7,5,1,775.399999976158,FALSE,"Russian"
"1562","5a28738fb4a5de00011af471",155,"yes","blues",7,9,1,887.600000023842,FALSE,"Russian"
"1572","5a28738fb4a5de00011af471",156,"yes","browns",7,9,1,1863,FALSE,"Russian"
"1592","5a28738fb4a5de00011af471",158,"yes","yellows",3,5,1,1104.80000001192,FALSE,"Russian"
"1602","5a28738fb4a5de00011af471",159,"yes","reds",10,8,1,1447.10000002384,FALSE,"Russian"
"1613","5a28738fb4a5de00011af471",160,"yes","yellows",14,16,1,1231.80000001192,FALSE,"Russian"
"1622","5a28738fb4a5de00011af471",161,"yes","browns",11,13,0,741.399999976158,FALSE,"Russian"
"1632","5a28738fb4a5de00011af471",162,"yes","yellows",4,6,1,1693.89999997616,FALSE,"Russian"
"1642","5a28738fb4a5de00011af471",163,"yes","reds",13,11,1,2026.5,TRUE,"Russian"
"1652","5a28738fb4a5de00011af471",164,"yes","reds",17,15,1,932,FALSE,"Russian"
"1662","5a28738fb4a5de00011af471",165,"yes","blues",10,12,1,748,FALSE,"Russian"
"1672","5a28738fb4a5de00011af471",166,"yes","blues",10,12,1,1633,FALSE,"Russian"
"1682","5a28738fb4a5de00011af471",167,"yes","blues",4,6,1,813,FALSE,"Russian"
"1692","5a28738fb4a5de00011af471",168,"yes","blues",1,3,1,644.400000035763,FALSE,"Russian"
"1702","5a28738fb4a5de00011af471",169,"yes","blues",13,15,0,975.400000035763,TRUE,"Russian"
"1713","5a28738fb4a5de00011af471",170,"yes","yellows",13,11,1,782.600000023842,TRUE,"Russian"
"1722","5a28738fb4a5de00011af471",171,"yes","yellows",4,2,0,1548.5,FALSE,"Russian"
"1732","5a28738fb4a5de00011af471",172,"yes","blues",15,17,1,3673.09999996424,FALSE,"Russian"
"1742","5a28738fb4a5de00011af471",173,"yes","blues",16,14,0,930,FALSE,"Russian"
"1752","5a28738fb4a5de00011af471",174,"yes","yellows",9,11,1,1277.89999997616,FALSE,"Russian"
"1762","5a28738fb4a5de00011af471",175,"yes","yellows",4,2,1,1196.60000002384,FALSE,"Russian"
"1772","5a28738fb4a5de00011af471",176,"yes","reds",18,16,0,2447.90000003576,FALSE,"Russian"
"1782","5a28738fb4a5de00011af471",177,"yes","blues",15,13,1,793.099999964237,TRUE,"Russian"
"1792","5a28738fb4a5de00011af471",178,"yes","browns",3,5,1,1308,FALSE,"Russian"
"1802","5a28738fb4a5de00011af471",179,"yes","browns",4,6,0,932.100000023842,FALSE,"Russian"
"1813","5a28738fb4a5de00011af471",180,"yes","yellows",2,4,1,924.399999976158,FALSE,"Russian"
"1822","5a28738fb4a5de00011af471",181,"yes","browns",13,11,1,1012.39999997616,FALSE,"Russian"
"1832","5a28738fb4a5de00011af471",182,"yes","reds",1,3,1,844.900000035763,FALSE,"Russian"
"1842","5a28738fb4a5de00011af471",183,"yes","browns",10,12,1,1960.30000001192,TRUE,"Russian"
"1852","5a28738fb4a5de00011af471",184,"yes","browns",14,16,1,1098.5,FALSE,"Russian"
"1862","5a28738fb4a5de00011af471",185,"yes","browns",12,14,1,1689.39999997616,TRUE,"Russian"
"1872","5a28738fb4a5de00011af471",186,"yes","yellows",17,15,1,2101.69999998808,FALSE,"Russian"
"1882","5a28738fb4a5de00011af471",187,"yes","browns",5,3,1,1362.89999997616,FALSE,"Russian"
"1892","5a28738fb4a5de00011af471",188,"yes","reds",13,15,0,4167,FALSE,"Russian"
"1902","5a28738fb4a5de00011af471",189,"yes","browns",17,15,1,1018.39999997616,FALSE,"Russian"
"1913","5a28738fb4a5de00011af471",190,"yes","yellows",1,3,1,1927.89999997616,FALSE,"Russian"
"1922","5a28738fb4a5de00011af471",191,"yes","browns",16,18,0,762.5,FALSE,"Russian"
"1932","5a28738fb4a5de00011af471",192,"yes","browns",4,2,1,2306.60000002384,FALSE,"Russian"
"1942","5a28738fb4a5de00011af471",193,"yes","reds",5,3,1,1090,FALSE,"Russian"
"1952","5a28738fb4a5de00011af471",194,"yes","reds",7,5,1,863.699999988079,FALSE,"Russian"
"1962","5a28738fb4a5de00011af471",195,"yes","blues",2,4,1,761.699999988079,FALSE,"Russian"
"1972","5a28738fb4a5de00011af471",196,"yes","browns",12,10,1,861.199999988079,TRUE,"Russian"
"1982","5a28738fb4a5de00011af471",197,"yes","reds",14,12,1,2836.19999998808,TRUE,"Russian"
"1992","5a28738fb4a5de00011af471",198,"yes","browns",15,17,1,1169,FALSE,"Russian"
"2002","5a28738fb4a5de00011af471",199,"yes","browns",8,6,0,813.800000011921,FALSE,"Russian"
"2012","5a28738fb4a5de00011af471",200,"yes","blues",8,10,1,1719.39999997616,FALSE,"Russian"
"2022","5a28738fb4a5de00011af471",201,"yes","yellows",11,9,0,872.100000023842,FALSE,"Russian"
"2032","5a28738fb4a5de00011af471",202,"yes","yellows",7,5,0,1191.5,FALSE,"Russian"
"2042","5a28738fb4a5de00011af471",203,"yes","reds",16,14,0,2421.59999996424,FALSE,"Russian"
"2052","5a28738fb4a5de00011af471",204,"yes","reds",14,16,0,593.199999988079,FALSE,"Russian"
"2062","5a28738fb4a5de00011af471",205,"yes","yellows",7,5,1,866.299999952316,FALSE,"Russian"
"2072","5a28738fb4a5de00011af471",206,"yes","yellows",19,17,1,1805.30000001192,FALSE,"Russian"
"2082","5a28738fb4a5de00011af471",207,"yes","blues",9,11,0,2490.69999998808,FALSE,"Russian"
"2102","5a28738fb4a5de00011af471",209,"yes","yellows",10,12,1,946.899999976158,FALSE,"Russian"
"2113","5a28738fb4a5de00011af471",210,"yes","blues",4,6,1,1720.80000001192,FALSE,"Russian"
"2122","5a28738fb4a5de00011af471",211,"yes","reds",15,13,1,1614.19999998808,FALSE,"Russian"
"2132","5a28738fb4a5de00011af471",212,"yes","blues",6,8,1,996.199999988079,FALSE,"Russian"
"2142","5a28738fb4a5de00011af471",213,"yes","reds",3,1,1,832.5,FALSE,"Russian"
"2152","5a28738fb4a5de00011af471",214,"yes","browns",13,15,1,823.199999988079,TRUE,"Russian"
"2162","5a28738fb4a5de00011af471",215,"yes","browns",9,7,1,1413.40000003576,FALSE,"Russian"
"2172","5a28738fb4a5de00011af471",216,"yes","reds",8,6,1,1461.19999998808,FALSE,"Russian"
"2182","5a28738fb4a5de00011af471",217,"yes","reds",16,18,0,810.800000011921,FALSE,"Russian"
"2192","5a28738fb4a5de00011af471",218,"yes","blues",4,2,1,586.800000011921,FALSE,"Russian"
"2202","5a28738fb4a5de00011af471",219,"yes","reds",15,17,0,1386.19999998808,FALSE,"Russian"
"2213","5a28738fb4a5de00011af471",220,"yes","browns",18,16,1,880.199999988079,FALSE,"Russian"
"2222","5a28738fb4a5de00011af471",221,"yes","yellows",16,14,1,2173,FALSE,"Russian"
"2232","5a28738fb4a5de00011af471",222,"yes","browns",10,8,1,853.699999988079,FALSE,"Russian"
"2242","5a28738fb4a5de00011af471",223,"yes","browns",20,18,1,710.100000023842,FALSE,"Russian"
"2252","5a28738fb4a5de00011af471",224,"yes","blues",5,7,1,835.100000023842,FALSE,"Russian"
"2262","5a28738fb4a5de00011af471",225,"yes","browns",11,13,1,830.400000035763,FALSE,"Russian"
"2272","5a28738fb4a5de00011af471",226,"yes","yellows",10,8,1,1243.59999996424,FALSE,"Russian"
"2282","5a28738fb4a5de00011af471",227,"yes","reds",1,3,1,792,FALSE,"Russian"
"2292","5a28738fb4a5de00011af471",228,"yes","reds",10,8,1,656.5,FALSE,"Russian"
"2302","5a28738fb4a5de00011af471",229,"yes","reds",4,2,0,668.100000023842,FALSE,"Russian"
"2313","5a28738fb4a5de00011af471",230,"yes","browns",2,4,1,726.599999964237,FALSE,"Russian"
"2322","5a28738fb4a5de00011af471",231,"yes","yellows",4,6,1,684.899999976158,FALSE,"Russian"
"2332","5a28738fb4a5de00011af471",232,"yes","reds",6,4,1,647.599999964237,FALSE,"Russian"
"2342","5a28738fb4a5de00011af471",233,"yes","reds",4,6,1,862.600000023842,FALSE,"Russian"
"2352","5a28738fb4a5de00011af471",234,"yes","reds",18,20,1,2007,FALSE,"Russian"
"2362","5a28738fb4a5de00011af471",235,"yes","blues",12,14,0,831.300000011921,TRUE,"Russian"
"2372","5a28738fb4a5de00011af471",236,"yes","yellows",17,19,1,1085.90000003576,FALSE,"Russian"
"2382","5a28738fb4a5de00011af471",237,"yes","blues",15,13,0,771.399999976158,TRUE,"Russian"
"2392","5a28738fb4a5de00011af471",238,"yes","reds",11,13,0,1094.10000002384,TRUE,"Russian"
"2402","5a28738fb4a5de00011af471",239,"yes","browns",4,2,1,1632.60000002384,FALSE,"Russian"
"2413","5a28738fb4a5de00011af471",240,"yes","reds",7,9,0,1353,FALSE,"Russian"
"2422","5a28738fb4a5de00011af471",241,"yes","reds",15,13,1,751.399999976158,FALSE,"Russian"
"2432","5a28738fb4a5de00011af471",242,"yes","reds",17,19,0,1467.80000001192,FALSE,"Russian"
"2442","5a28738fb4a5de00011af471",243,"yes","browns",8,10,1,871.5,FALSE,"Russian"
"2452","5a28738fb4a5de00011af471",244,"yes","browns",17,19,0,1294.69999998808,FALSE,"Russian"
"2462","5a28738fb4a5de00011af471",245,"yes","yellows",1,3,1,4136.30000001192,FALSE,"Russian"
"2472","5a28738fb4a5de00011af471",246,"yes","blues",9,11,1,1145.39999997616,FALSE,"Russian"
"2482","5a28738fb4a5de00011af471",247,"yes","reds",12,14,1,1264,TRUE,"Russian"
"2492","5a28738fb4a5de00011af471",248,"yes","blues",19,17,0,672.5,FALSE,"Russian"
"2502","5a28738fb4a5de00011af471",249,"yes","blues",3,1,1,1762.89999997616,FALSE,"Russian"
"2513","5a28738fb4a5de00011af471",250,"yes","browns",7,9,1,1453.59999996424,FALSE,"Russian"
"2522","5a28738fb4a5de00011af471",251,"yes","yellows",8,6,1,839.099999964237,FALSE,"Russian"
"2532","5a28738fb4a5de00011af471",252,"yes","browns",20,18,1,922.900000035763,FALSE,"Russian"
"2542","5a28738fb4a5de00011af471",253,"yes","browns",7,5,1,1201.5,FALSE,"Russian"
"2552","5a28738fb4a5de00011af471",254,"yes","reds",3,1,1,775.200000047684,FALSE,"Russian"
"2562","5a28738fb4a5de00011af471",255,"yes","blues",14,12,1,1030.79999995232,TRUE,"Russian"
"2572","5a28738fb4a5de00011af471",256,"yes","blues",6,8,1,758.899999976158,FALSE,"Russian"
"2582","5a28738fb4a5de00011af471",257,"yes","yellows",20,18,1,1093.20000004768,FALSE,"Russian"
"2592","5a28738fb4a5de00011af471",258,"yes","yellows",8,10,1,2016.70000004768,FALSE,"Russian"
"2613","5a28738fb4a5de00011af471",260,"yes","reds",10,12,1,1670.39999997616,TRUE,"Russian"
"2622","5a28738fb4a5de00011af471",261,"yes","blues",11,9,1,882.099999964237,FALSE,"Russian"
"2632","5a28738fb4a5de00011af471",262,"yes","yellows",19,17,1,730.400000035763,FALSE,"Russian"
"2642","5a28738fb4a5de00011af471",263,"yes","browns",5,7,1,791.600000023842,FALSE,"Russian"
"2652","5a28738fb4a5de00011af471",264,"yes","browns",19,17,1,673.800000011921,FALSE,"Russian"
"2662","5a28738fb4a5de00011af471",265,"yes","blues",17,19,1,1742.19999998808,FALSE,"Russian"
"2672","5a28738fb4a5de00011af471",266,"yes","reds",4,6,1,728.300000011921,FALSE,"Russian"
"2682","5a28738fb4a5de00011af471",267,"yes","reds",11,9,1,727.799999952316,FALSE,"Russian"
"2692","5a28738fb4a5de00011af471",268,"yes","browns",14,16,1,1010.5,FALSE,"Russian"
"2702","5a28738fb4a5de00011af471",269,"yes","browns",8,6,1,865.399999976158,FALSE,"Russian"
"2713","5a28738fb4a5de00011af471",270,"yes","browns",12,10,1,686.400000035763,TRUE,"Russian"
"2722","5a28738fb4a5de00011af471",271,"yes","blues",11,13,1,1240.09999996424,FALSE,"Russian"
"2732","5a28738fb4a5de00011af471",272,"yes","reds",19,17,1,947,FALSE,"Russian"
"2742","5a28738fb4a5de00011af471",273,"yes","browns",13,11,1,2168.90000003576,FALSE,"Russian"
"2752","5a28738fb4a5de00011af471",274,"yes","reds",12,14,0,1025.69999998808,TRUE,"Russian"
"2762","5a28738fb4a5de00011af471",275,"yes","reds",13,15,0,1211.80000001192,FALSE,"Russian"
"2772","5a28738fb4a5de00011af471",276,"yes","yellows",3,5,1,1486.39999997616,FALSE,"Russian"
"2782","5a28738fb4a5de00011af471",277,"yes","browns",17,15,1,1257.90000003576,FALSE,"Russian"
"2792","5a28738fb4a5de00011af471",278,"yes","blues",17,15,1,1403.60000002384,FALSE,"Russian"
"2802","5a28738fb4a5de00011af471",279,"yes","browns",3,5,1,836.100000023842,FALSE,"Russian"
"2813","5a28738fb4a5de00011af471",280,"yes","yellows",15,13,1,1048.5,TRUE,"Russian"
"2822","5a28738fb4a5de00011af471",281,"yes","reds",8,10,1,1057.89999997616,FALSE,"Russian"
"2832","5a28738fb4a5de00011af471",282,"yes","reds",3,5,0,1901.39999997616,FALSE,"Russian"
"2842","5a28738fb4a5de00011af471",283,"yes","reds",6,8,1,1800.29999995232,FALSE,"Russian"
"2852","5a28738fb4a5de00011af471",284,"yes","blues",20,18,0,931.199999988079,FALSE,"Russian"
"2862","5a28738fb4a5de00011af471",285,"yes","blues",5,7,1,1510.5,FALSE,"Russian"
"2872","5a28738fb4a5de00011af471",286,"yes","blues",12,10,1,1059,FALSE,"Russian"
"2882","5a28738fb4a5de00011af471",287,"yes","reds",4,2,1,2117.5,FALSE,"Russian"
"2892","5a28738fb4a5de00011af471",288,"yes","blues",18,20,1,1099,FALSE,"Russian"
"2902","5a28738fb4a5de00011af471",289,"yes","reds",12,10,1,1763.60000002384,TRUE,"Russian"
"2913","5a28738fb4a5de00011af471",290,"yes","blues",7,5,1,1141.30000001192,FALSE,"Russian"
"2922","5a28738fb4a5de00011af471",291,"yes","yellows",14,12,1,1679.69999998808,TRUE,"Russian"
"2932","5a28738fb4a5de00011af471",292,"yes","blues",14,16,1,1256.69999998808,FALSE,"Russian"
"2942","5a28738fb4a5de00011af471",293,"yes","browns",1,3,1,936.800000011921,FALSE,"Russian"
"2952","5a28738fb4a5de00011af471",294,"yes","blues",1,3,1,790.100000023842,FALSE,"Russian"
"2962","5a28738fb4a5de00011af471",295,"yes","blues",20,18,1,1566.40000003576,FALSE,"Russian"
"2972","5a28738fb4a5de00011af471",296,"yes","blues",13,15,1,830.399999976158,TRUE,"Russian"
"2982","5a28738fb4a5de00011af471",297,"yes","yellows",6,4,0,742.100000023842,FALSE,"Russian"
"2992","5a28738fb4a5de00011af471",298,"yes","reds",12,10,1,794.800000011921,TRUE,"Russian"
"718","5b5345492a4d0c0001ae2e12",6,"yes","blues",16,14,1,1588.89999997616,FALSE,"Russian"
"818","5b5345492a4d0c0001ae2e12",7,"yes","yellows",8,6,1,2033.80000001192,FALSE,"Russian"
"918","5b5345492a4d0c0001ae2e12",8,"yes","yellows",11,9,1,1560.90000003576,FALSE,"Russian"
"1017","5b5345492a4d0c0001ae2e12",9,"yes","blues",3,5,1,1737.69999998808,FALSE,"Russian"
"1118","5b5345492a4d0c0001ae2e12",10,"yes","reds",16,18,1,1552.80000001192,FALSE,"Russian"
"1218","5b5345492a4d0c0001ae2e12",11,"yes","reds",13,11,0,1112.5,TRUE,"Russian"
"1318","5b5345492a4d0c0001ae2e12",12,"yes","reds",10,12,1,985.699999988079,TRUE,"Russian"
"1418","5b5345492a4d0c0001ae2e12",13,"yes","yellows",11,13,1,2225.40000003576,TRUE,"Russian"
"1517","5b5345492a4d0c0001ae2e12",14,"yes","yellows",10,8,1,1210.10000002384,FALSE,"Russian"
"1618","5b5345492a4d0c0001ae2e12",15,"yes","yellows",6,4,1,944.699999988079,FALSE,"Russian"
"1718","5b5345492a4d0c0001ae2e12",16,"yes","browns",17,19,1,1105.60000002384,FALSE,"Russian"
"1818","5b5345492a4d0c0001ae2e12",17,"yes","reds",10,8,1,3593.69999998808,FALSE,"Russian"
"1918","5b5345492a4d0c0001ae2e12",18,"yes","blues",6,8,1,1704.80000001192,TRUE,"Russian"
"2017","5b5345492a4d0c0001ae2e12",19,"yes","blues",7,5,1,1049.80000001192,FALSE,"Russian"
"2118","5b5345492a4d0c0001ae2e12",20,"yes","reds",14,12,1,1105.5,TRUE,"Russian"
"2218","5b5345492a4d0c0001ae2e12",21,"yes","reds",8,6,1,2192.80000001192,FALSE,"Russian"
"2318","5b5345492a4d0c0001ae2e12",22,"yes","browns",14,12,1,1586,FALSE,"Russian"
"2418","5b5345492a4d0c0001ae2e12",23,"yes","reds",12,14,0,1042,TRUE,"Russian"
"2518","5b5345492a4d0c0001ae2e12",24,"yes","reds",15,13,1,1281.5,FALSE,"Russian"
"2618","5b5345492a4d0c0001ae2e12",25,"yes","reds",15,17,1,4018.30000001192,FALSE,"Russian"
"2718","5b5345492a4d0c0001ae2e12",26,"yes","browns",8,10,1,1425.60000002384,TRUE,"Russian"
"2818","5b5345492a4d0c0001ae2e12",27,"yes","blues",19,17,1,954.100000023842,FALSE,"Russian"
"2918","5b5345492a4d0c0001ae2e12",28,"yes","blues",11,9,1,1729.5,TRUE,"Russian"
"305","5b5345492a4d0c0001ae2e12",29,"yes","blues",7,9,1,873.600000023842,TRUE,"Russian"
"315","5b5345492a4d0c0001ae2e12",30,"yes","browns",10,8,1,994.399999976158,TRUE,"Russian"
"325","5b5345492a4d0c0001ae2e12",31,"yes","browns",7,5,1,1232.80000001192,FALSE,"Russian"
"335","5b5345492a4d0c0001ae2e12",32,"yes","blues",6,8,1,1465.60000002384,TRUE,"Russian"
"345","5b5345492a4d0c0001ae2e12",33,"yes","browns",9,11,1,1634,TRUE,"Russian"
"355","5b5345492a4d0c0001ae2e12",34,"yes","reds",9,7,1,1793.80000001192,FALSE,"Russian"
"365","5b5345492a4d0c0001ae2e12",35,"yes","yellows",12,14,1,1914.29999995232,FALSE,"Russian"
"375","5b5345492a4d0c0001ae2e12",36,"yes","blues",14,16,1,4137.10000002384,FALSE,"Russian"
"385","5b5345492a4d0c0001ae2e12",37,"yes","yellows",16,18,1,1449.80000001192,FALSE,"Russian"
"395","5b5345492a4d0c0001ae2e12",38,"yes","blues",17,19,0,1049.59999996424,FALSE,"Russian"
"405","5b5345492a4d0c0001ae2e12",39,"yes","yellows",12,10,1,1769.5,TRUE,"Russian"
"415","5b5345492a4d0c0001ae2e12",40,"yes","browns",4,2,1,1529.80000001192,FALSE,"Russian"
"425","5b5345492a4d0c0001ae2e12",41,"yes","browns",9,11,1,1641.09999996424,TRUE,"Russian"
"435","5b5345492a4d0c0001ae2e12",42,"yes","blues",3,1,1,1337.80000001192,FALSE,"Russian"
"445","5b5345492a4d0c0001ae2e12",43,"yes","blues",8,6,1,769.800000011921,TRUE,"Russian"
"455","5b5345492a4d0c0001ae2e12",44,"yes","reds",9,11,1,4225.30000001192,FALSE,"Russian"
"465","5b5345492a4d0c0001ae2e12",45,"yes","yellows",9,11,1,1841.59999996424,FALSE,"Russian"
"475","5b5345492a4d0c0001ae2e12",46,"yes","browns",9,7,1,817.800000011921,FALSE,"Russian"
"485","5b5345492a4d0c0001ae2e12",47,"yes","browns",16,18,0,793.600000023842,FALSE,"Russian"
"495","5b5345492a4d0c0001ae2e12",48,"yes","browns",15,13,1,746,FALSE,"Russian"
"505","5b5345492a4d0c0001ae2e12",49,"yes","reds",16,18,0,4473.5,FALSE,"Russian"
"515","5b5345492a4d0c0001ae2e12",50,"yes","blues",12,14,1,5377.10000002384,FALSE,"Russian"
"525","5b5345492a4d0c0001ae2e12",51,"yes","reds",1,3,1,1394.60000002384,FALSE,"Russian"
"535","5b5345492a4d0c0001ae2e12",52,"yes","browns",14,12,1,1081.09999996424,FALSE,"Russian"
"545","5b5345492a4d0c0001ae2e12",53,"yes","browns",9,7,1,1040.60000002384,FALSE,"Russian"
"555","5b5345492a4d0c0001ae2e12",54,"yes","blues",2,4,1,889.800000011921,FALSE,"Russian"
"575","5b5345492a4d0c0001ae2e12",56,"yes","browns",20,18,1,909.200000047684,FALSE,"Russian"
"585","5b5345492a4d0c0001ae2e12",57,"yes","blues",18,16,1,981.599999964237,FALSE,"Russian"
"595","5b5345492a4d0c0001ae2e12",58,"yes","yellows",10,12,1,3578.09999996424,TRUE,"Russian"
"605","5b5345492a4d0c0001ae2e12",59,"yes","browns",16,18,1,2049.19999998808,FALSE,"Russian"
"615","5b5345492a4d0c0001ae2e12",60,"yes","browns",18,16,1,896.899999976158,FALSE,"Russian"
"625","5b5345492a4d0c0001ae2e12",61,"yes","reds",3,1,1,1081.5,FALSE,"Russian"
"635","5b5345492a4d0c0001ae2e12",62,"yes","blues",17,15,1,793.5,FALSE,"Russian"
"645","5b5345492a4d0c0001ae2e12",63,"yes","reds",9,11,1,3178,FALSE,"Russian"
"655","5b5345492a4d0c0001ae2e12",64,"yes","yellows",1,3,1,1033,FALSE,"Russian"
"665","5b5345492a4d0c0001ae2e12",65,"yes","blues",13,11,1,833.400000035763,FALSE,"Russian"
"675","5b5345492a4d0c0001ae2e12",66,"yes","browns",16,14,1,712.400000035763,FALSE,"Russian"
"685","5b5345492a4d0c0001ae2e12",67,"yes","blues",8,6,1,1793.69999998808,TRUE,"Russian"
"695","5b5345492a4d0c0001ae2e12",68,"yes","browns",2,4,1,833.599999964237,FALSE,"Russian"
"705","5b5345492a4d0c0001ae2e12",69,"yes","blues",13,15,1,809.600000023842,FALSE,"Russian"
"719","5b5345492a4d0c0001ae2e12",70,"yes","blues",4,2,1,712.800000011921,FALSE,"Russian"
"725","5b5345492a4d0c0001ae2e12",71,"yes","browns",14,16,1,1736.69999998808,FALSE,"Russian"
"735","5b5345492a4d0c0001ae2e12",72,"yes","blues",14,12,1,753.399999976158,FALSE,"Russian"
"745","5b5345492a4d0c0001ae2e12",73,"yes","browns",18,20,1,1584.90000003576,FALSE,"Russian"
"755","5b5345492a4d0c0001ae2e12",74,"yes","blues",12,10,1,689.699999988079,FALSE,"Russian"
"765","5b5345492a4d0c0001ae2e12",75,"yes","browns",15,13,1,792.799999952316,FALSE,"Russian"
"775","5b5345492a4d0c0001ae2e12",76,"yes","browns",12,10,1,841,TRUE,"Russian"
"785","5b5345492a4d0c0001ae2e12",77,"yes","blues",9,7,1,688.800000011921,TRUE,"Russian"
"795","5b5345492a4d0c0001ae2e12",78,"yes","yellows",18,20,1,889,FALSE,"Russian"
"805","5b5345492a4d0c0001ae2e12",79,"yes","browns",6,8,1,890.099999964237,FALSE,"Russian"
"819","5b5345492a4d0c0001ae2e12",80,"yes","yellows",10,8,1,993.699999988079,FALSE,"Russian"
"825","5b5345492a4d0c0001ae2e12",81,"yes","reds",4,2,1,2879.60000002384,FALSE,"Russian"
"835","5b5345492a4d0c0001ae2e12",82,"yes","reds",17,15,0,6065.69999998808,FALSE,"Russian"
"845","5b5345492a4d0c0001ae2e12",83,"yes","yellows",7,5,1,1528.69999998808,FALSE,"Russian"
"855","5b5345492a4d0c0001ae2e12",84,"yes","blues",18,16,1,784.699999988079,FALSE,"Russian"
"865","5b5345492a4d0c0001ae2e12",85,"yes","reds",18,16,0,5769.30000001192,FALSE,"Russian"
"875","5b5345492a4d0c0001ae2e12",86,"yes","blues",10,8,1,928.5,TRUE,"Russian"
"885","5b5345492a4d0c0001ae2e12",87,"yes","browns",20,18,1,745.600000023842,FALSE,"Russian"
"895","5b5345492a4d0c0001ae2e12",88,"yes","yellows",15,13,1,1696.19999998808,FALSE,"Russian"
"905","5b5345492a4d0c0001ae2e12",89,"yes","blues",16,14,1,665,FALSE,"Russian"
"919","5b5345492a4d0c0001ae2e12",90,"yes","reds",13,15,0,848.600000023842,FALSE,"Russian"
"925","5b5345492a4d0c0001ae2e12",91,"yes","browns",11,13,0,768.900000035763,FALSE,"Russian"
"935","5b5345492a4d0c0001ae2e12",92,"yes","yellows",1,3,1,2016.30000001192,FALSE,"Russian"
"945","5b5345492a4d0c0001ae2e12",93,"yes","reds",6,4,1,2560.39999997616,FALSE,"Russian"
"955","5b5345492a4d0c0001ae2e12",94,"yes","blues",9,7,1,1465.10000002384,TRUE,"Russian"
"965","5b5345492a4d0c0001ae2e12",95,"yes","yellows",3,1,1,895.699999988079,FALSE,"Russian"
"975","5b5345492a4d0c0001ae2e12",96,"yes","browns",19,17,1,816.599999964237,FALSE,"Russian"
"985","5b5345492a4d0c0001ae2e12",97,"yes","blues",9,11,1,1289,TRUE,"Russian"
"995","5b5345492a4d0c0001ae2e12",98,"yes","reds",8,6,1,2457,FALSE,"Russian"
"1005","5b5345492a4d0c0001ae2e12",99,"yes","yellows",9,7,1,912,FALSE,"Russian"
"1018","5b5345492a4d0c0001ae2e12",100,"yes","browns",19,17,1,1141.09999996424,FALSE,"Russian"
"1025","5b5345492a4d0c0001ae2e12",101,"yes","yellows",6,4,1,1697.39999997616,FALSE,"Russian"
"1035","5b5345492a4d0c0001ae2e12",102,"yes","browns",18,20,1,1128.39999997616,FALSE,"Russian"
"1045","5b5345492a4d0c0001ae2e12",103,"yes","reds",18,20,0,6409.5,FALSE,"Russian"
"1055","5b5345492a4d0c0001ae2e12",104,"yes","reds",20,18,1,863.199999988079,FALSE,"Russian"
"1065","5b5345492a4d0c0001ae2e12",105,"yes","browns",10,12,1,1625.09999996424,TRUE,"Russian"
"1085","5b5345492a4d0c0001ae2e12",107,"yes","browns",4,6,1,949.5,FALSE,"Russian"
"1095","5b5345492a4d0c0001ae2e12",108,"yes","browns",11,9,1,849,TRUE,"Russian"
"1105","5b5345492a4d0c0001ae2e12",109,"yes","browns",14,16,1,896.799999952316,FALSE,"Russian"
"1119","5b5345492a4d0c0001ae2e12",110,"yes","blues",3,5,1,809,FALSE,"Russian"
"1125","5b5345492a4d0c0001ae2e12",111,"yes","blues",3,1,1,838.5,FALSE,"Russian"
"1135","5b5345492a4d0c0001ae2e12",112,"yes","reds",17,15,1,4610,FALSE,"Russian"
"1145","5b5345492a4d0c0001ae2e12",113,"yes","blues",4,6,1,856.300000011921,FALSE,"Russian"
"1155","5b5345492a4d0c0001ae2e12",114,"yes","blues",18,20,0,768.5,FALSE,"Russian"
"1165","5b5345492a4d0c0001ae2e12",115,"yes","yellows",4,2,1,849.299999952316,FALSE,"Russian"
"1175","5b5345492a4d0c0001ae2e12",116,"yes","yellows",20,18,1,1376.69999998808,FALSE,"Russian"
"1185","5b5345492a4d0c0001ae2e12",117,"yes","yellows",9,7,1,904.400000035763,FALSE,"Russian"
"1195","5b5345492a4d0c0001ae2e12",118,"yes","blues",2,4,1,2608.39999997616,FALSE,"Russian"
"1205","5b5345492a4d0c0001ae2e12",119,"yes","blues",12,10,1,1832.30000001192,FALSE,"Russian"
"1219","5b5345492a4d0c0001ae2e12",120,"yes","yellows",6,8,1,1073.10000002384,FALSE,"Russian"
"1225","5b5345492a4d0c0001ae2e12",121,"yes","blues",17,15,1,1032,FALSE,"Russian"
"1235","5b5345492a4d0c0001ae2e12",122,"yes","blues",16,18,1,1784.5,FALSE,"Russian"
"1245","5b5345492a4d0c0001ae2e12",123,"yes","reds",14,16,1,3504.80000001192,FALSE,"Russian"
"1255","5b5345492a4d0c0001ae2e12",124,"yes","blues",20,18,1,2481.5,FALSE,"Russian"
"1265","5b5345492a4d0c0001ae2e12",125,"yes","blues",17,19,1,1504.10000002384,FALSE,"Russian"
"1275","5b5345492a4d0c0001ae2e12",126,"yes","reds",1,3,0,1791.70000004768,FALSE,"Russian"
"1285","5b5345492a4d0c0001ae2e12",127,"yes","blues",18,20,1,3928.80000001192,FALSE,"Russian"
"1295","5b5345492a4d0c0001ae2e12",128,"yes","yellows",8,10,1,2791.89999997616,FALSE,"Russian"
"1305","5b5345492a4d0c0001ae2e12",129,"yes","reds",15,17,1,2361,FALSE,"Russian"
"1319","5b5345492a4d0c0001ae2e12",130,"yes","browns",17,15,1,966.600000023842,FALSE,"Russian"
"1325","5b5345492a4d0c0001ae2e12",131,"yes","blues",5,7,1,1568,FALSE,"Russian"
"1335","5b5345492a4d0c0001ae2e12",132,"yes","reds",6,8,1,1912.5,FALSE,"Russian"
"1345","5b5345492a4d0c0001ae2e12",133,"yes","yellows",2,4,1,1064.19999998808,FALSE,"Russian"
"1355","5b5345492a4d0c0001ae2e12",134,"yes","browns",8,6,1,1144.5,FALSE,"Russian"
"1365","5b5345492a4d0c0001ae2e12",135,"yes","yellows",5,3,1,903.600000023842,FALSE,"Russian"
"1375","5b5345492a4d0c0001ae2e12",136,"yes","reds",6,8,1,1504.80000001192,FALSE,"Russian"
"1385","5b5345492a4d0c0001ae2e12",137,"yes","browns",13,15,1,1013.89999997616,FALSE,"Russian"
"1395","5b5345492a4d0c0001ae2e12",138,"yes","browns",12,14,1,1621.89999997616,FALSE,"Russian"
"1405","5b5345492a4d0c0001ae2e12",139,"yes","yellows",15,17,1,1216.69999998808,FALSE,"Russian"
"1419","5b5345492a4d0c0001ae2e12",140,"yes","yellows",7,5,1,928.300000011921,FALSE,"Russian"
"1425","5b5345492a4d0c0001ae2e12",141,"yes","blues",15,17,1,1080,FALSE,"Russian"
"1435","5b5345492a4d0c0001ae2e12",142,"yes","reds",18,20,0,2592.29999995232,FALSE,"Russian"
"1445","5b5345492a4d0c0001ae2e12",143,"yes","yellows",5,3,1,1088,FALSE,"Russian"
"1455","5b5345492a4d0c0001ae2e12",144,"yes","reds",3,5,1,848.699999988079,FALSE,"Russian"
"1465","5b5345492a4d0c0001ae2e12",145,"yes","reds",13,11,1,831.399999976158,TRUE,"Russian"
"1475","5b5345492a4d0c0001ae2e12",146,"yes","blues",13,11,1,2648.5,FALSE,"Russian"
"1485","5b5345492a4d0c0001ae2e12",147,"yes","reds",8,10,1,1087.69999998808,FALSE,"Russian"
"1495","5b5345492a4d0c0001ae2e12",148,"yes","blues",1,3,1,880.100000023842,FALSE,"Russian"
"1505","5b5345492a4d0c0001ae2e12",149,"yes","yellows",3,5,1,1080.09999996424,FALSE,"Russian"
"1518","5b5345492a4d0c0001ae2e12",150,"yes","yellows",16,18,1,1388.90000003576,FALSE,"Russian"
"1525","5b5345492a4d0c0001ae2e12",151,"yes","browns",10,12,1,2128.5,TRUE,"Russian"
"1535","5b5345492a4d0c0001ae2e12",152,"yes","yellows",4,6,1,1095.30000001192,FALSE,"Russian"
"1545","5b5345492a4d0c0001ae2e12",153,"yes","reds",19,17,0,4720.29999995232,FALSE,"Russian"
"1555","5b5345492a4d0c0001ae2e12",154,"yes","blues",15,17,1,1303.69999998808,FALSE,"Russian"
"1565","5b5345492a4d0c0001ae2e12",155,"yes","reds",11,13,1,1903.80000001192,TRUE,"Russian"
"1575","5b5345492a4d0c0001ae2e12",156,"yes","yellows",20,18,1,1376.19999998808,FALSE,"Russian"
"1595","5b5345492a4d0c0001ae2e12",158,"yes","browns",3,1,1,1036.60000002384,FALSE,"Russian"
"1605","5b5345492a4d0c0001ae2e12",159,"yes","reds",3,5,1,1449,FALSE,"Russian"
"1619","5b5345492a4d0c0001ae2e12",160,"yes","reds",4,6,1,992.699999988079,FALSE,"Russian"
"1625","5b5345492a4d0c0001ae2e12",161,"yes","reds",7,9,1,1239.80000001192,FALSE,"Russian"
"1635","5b5345492a4d0c0001ae2e12",162,"yes","yellows",18,20,1,1639.90000003576,FALSE,"Russian"
"1645","5b5345492a4d0c0001ae2e12",163,"yes","yellows",17,19,1,1047.89999997616,FALSE,"Russian"
"1655","5b5345492a4d0c0001ae2e12",164,"yes","yellows",14,16,1,800.199999988079,FALSE,"Russian"
"1665","5b5345492a4d0c0001ae2e12",165,"yes","blues",11,13,1,735,FALSE,"Russian"
"1675","5b5345492a4d0c0001ae2e12",166,"yes","reds",4,6,1,1207,FALSE,"Russian"
"1685","5b5345492a4d0c0001ae2e12",167,"yes","blues",20,18,1,760,FALSE,"Russian"
"1695","5b5345492a4d0c0001ae2e12",168,"yes","blues",5,7,1,839.699999988079,FALSE,"Russian"
"1705","5b5345492a4d0c0001ae2e12",169,"yes","browns",6,8,1,775.800000011921,FALSE,"Russian"
"1719","5b5345492a4d0c0001ae2e12",170,"yes","blues",6,4,1,863.599999964237,FALSE,"Russian"
"1725","5b5345492a4d0c0001ae2e12",171,"yes","reds",19,17,1,2927.69999998808,FALSE,"Russian"
"1735","5b5345492a4d0c0001ae2e12",172,"yes","yellows",16,14,1,831.699999988079,FALSE,"Russian"
"1745","5b5345492a4d0c0001ae2e12",173,"yes","yellows",4,6,1,727.699999988079,FALSE,"Russian"
"1755","5b5345492a4d0c0001ae2e12",174,"yes","browns",15,17,1,850,FALSE,"Russian"
"1765","5b5345492a4d0c0001ae2e12",175,"yes","browns",2,4,1,792.100000023842,FALSE,"Russian"
"1775","5b5345492a4d0c0001ae2e12",176,"yes","yellows",13,11,1,936.199999988079,TRUE,"Russian"
"1785","5b5345492a4d0c0001ae2e12",177,"yes","yellows",17,19,1,807.700000047684,FALSE,"Russian"
"1795","5b5345492a4d0c0001ae2e12",178,"yes","reds",5,7,1,1663.59999996424,FALSE,"Russian"
"1805","5b5345492a4d0c0001ae2e12",179,"yes","yellows",19,17,1,1550.69999998808,FALSE,"Russian"
"1819","5b5345492a4d0c0001ae2e12",180,"yes","reds",20,18,1,5680.89999997616,FALSE,"Russian"
"1825","5b5345492a4d0c0001ae2e12",181,"yes","yellows",12,14,1,2471.59999996424,FALSE,"Russian"
"1835","5b5345492a4d0c0001ae2e12",182,"yes","yellows",6,8,1,5727.79999995232,FALSE,"Russian"
"1845","5b5345492a4d0c0001ae2e12",183,"yes","browns",17,15,1,2255.89999997616,FALSE,"Russian"
"1855","5b5345492a4d0c0001ae2e12",184,"yes","yellows",13,11,1,3112.90000003576,TRUE,"Russian"
"1865","5b5345492a4d0c0001ae2e12",185,"yes","yellows",7,9,1,5527.30000001192,FALSE,"Russian"
"1875","5b5345492a4d0c0001ae2e12",186,"yes","reds",5,3,1,1079,FALSE,"Russian"
"1885","5b5345492a4d0c0001ae2e12",187,"yes","yellows",15,17,1,1631.5,FALSE,"Russian"
"1895","5b5345492a4d0c0001ae2e12",188,"yes","yellows",13,15,1,968.100000023842,FALSE,"Russian"
"1905","5b5345492a4d0c0001ae2e12",189,"yes","browns",13,11,1,1783,FALSE,"Russian"
"1919","5b5345492a4d0c0001ae2e12",190,"yes","reds",5,3,1,1151.69999998808,FALSE,"Russian"
"1925","5b5345492a4d0c0001ae2e12",191,"yes","blues",7,9,1,1247.89999997616,TRUE,"Russian"
"1935","5b5345492a4d0c0001ae2e12",192,"yes","browns",6,4,1,750.600000023842,FALSE,"Russian"
"1945","5b5345492a4d0c0001ae2e12",193,"yes","blues",5,3,1,687.700000047684,FALSE,"Russian"
"1955","5b5345492a4d0c0001ae2e12",194,"yes","browns",8,6,1,744,FALSE,"Russian"
"1965","5b5345492a4d0c0001ae2e12",195,"yes","reds",5,7,1,2191.29999995232,FALSE,"Russian"
"1975","5b5345492a4d0c0001ae2e12",196,"yes","blues",7,5,1,1511,FALSE,"Russian"
"1985","5b5345492a4d0c0001ae2e12",197,"yes","reds",13,15,1,1991.69999998808,FALSE,"Russian"
"1995","5b5345492a4d0c0001ae2e12",198,"yes","yellows",2,4,1,855.5,FALSE,"Russian"
"2005","5b5345492a4d0c0001ae2e12",199,"yes","blues",10,12,1,1167.10000002384,FALSE,"Russian"
"2018","5b5345492a4d0c0001ae2e12",200,"yes","blues",9,11,1,1167.10000002384,TRUE,"Russian"
"2025","5b5345492a4d0c0001ae2e12",201,"yes","reds",9,7,1,1141.89999997616,FALSE,"Russian"
"2035","5b5345492a4d0c0001ae2e12",202,"yes","blues",8,10,1,1510.70000004768,TRUE,"Russian"
"2045","5b5345492a4d0c0001ae2e12",203,"yes","yellows",11,9,1,751.800000011921,FALSE,"Russian"
"2055","5b5345492a4d0c0001ae2e12",204,"yes","yellows",10,12,1,983.699999988079,TRUE,"Russian"
"2065","5b5345492a4d0c0001ae2e12",205,"yes","yellows",18,16,1,1823.09999996424,FALSE,"Russian"
"2075","5b5345492a4d0c0001ae2e12",206,"yes","yellows",13,15,1,870.199999988079,FALSE,"Russian"
"2085","5b5345492a4d0c0001ae2e12",207,"yes","browns",10,8,1,1591,TRUE,"Russian"
"2105","5b5345492a4d0c0001ae2e12",209,"yes","browns",4,6,1,1084.39999997616,FALSE,"Russian"
"2119","5b5345492a4d0c0001ae2e12",210,"yes","browns",18,16,1,678.700000047684,FALSE,"Russian"
"2125","5b5345492a4d0c0001ae2e12",211,"yes","browns",15,17,1,830.699999988079,FALSE,"Russian"
"2135","5b5345492a4d0c0001ae2e12",212,"yes","browns",12,10,1,959.699999988079,TRUE,"Russian"
"2145","5b5345492a4d0c0001ae2e12",213,"yes","yellows",14,12,1,806.699999988079,FALSE,"Russian"
"2155","5b5345492a4d0c0001ae2e12",214,"yes","yellows",8,10,1,734.5,FALSE,"Russian"
"2165","5b5345492a4d0c0001ae2e12",215,"yes","reds",8,10,1,1541.09999996424,FALSE,"Russian"
"2175","5b5345492a4d0c0001ae2e12",216,"yes","browns",8,10,1,671.300000011921,TRUE,"Russian"
"2185","5b5345492a4d0c0001ae2e12",217,"yes","blues",15,13,1,2567.60000002384,FALSE,"Russian"
"2195","5b5345492a4d0c0001ae2e12",218,"yes","blues",13,15,1,950.299999952316,FALSE,"Russian"
"2205","5b5345492a4d0c0001ae2e12",219,"yes","browns",6,4,1,782,FALSE,"Russian"
"2219","5b5345492a4d0c0001ae2e12",220,"yes","blues",1,3,1,750.900000035763,FALSE,"Russian"
"2225","5b5345492a4d0c0001ae2e12",221,"yes","blues",12,14,1,1006.80000001192,FALSE,"Russian"
"2235","5b5345492a4d0c0001ae2e12",222,"yes","browns",13,15,1,1591.10000002384,FALSE,"Russian"
"2245","5b5345492a4d0c0001ae2e12",223,"yes","browns",7,9,1,743,FALSE,"Russian"
"2255","5b5345492a4d0c0001ae2e12",224,"yes","reds",11,13,0,918.900000035763,TRUE,"Russian"
"2265","5b5345492a4d0c0001ae2e12",225,"yes","yellows",14,12,1,1542.5,FALSE,"Russian"
"2275","5b5345492a4d0c0001ae2e12",226,"yes","reds",12,10,1,1454.69999998808,TRUE,"Russian"
"2285","5b5345492a4d0c0001ae2e12",227,"yes","reds",10,12,1,903.199999988079,TRUE,"Russian"
"2295","5b5345492a4d0c0001ae2e12",228,"yes","yellows",9,11,1,4078.89999997616,FALSE,"Russian"
"2305","5b5345492a4d0c0001ae2e12",229,"yes","yellows",5,7,1,2998.60000002384,FALSE,"Russian"
"2319","5b5345492a4d0c0001ae2e12",230,"yes","browns",17,19,1,1125.80000001192,FALSE,"Russian"
"2325","5b5345492a4d0c0001ae2e12",231,"yes","blues",11,13,1,3406.69999998808,FALSE,"Russian"
"2335","5b5345492a4d0c0001ae2e12",232,"yes","yellows",12,10,1,741.899999976158,TRUE,"Russian"
"2345","5b5345492a4d0c0001ae2e12",233,"yes","blues",8,10,1,775,TRUE,"Russian"
"2355","5b5345492a4d0c0001ae2e12",234,"yes","blues",10,8,1,1423.70000004768,TRUE,"Russian"
"2365","5b5345492a4d0c0001ae2e12",235,"yes","browns",13,11,1,798.5,FALSE,"Russian"
"2375","5b5345492a4d0c0001ae2e12",236,"yes","blues",14,16,1,1286.90000003576,FALSE,"Russian"
"2385","5b5345492a4d0c0001ae2e12",237,"yes","reds",17,19,1,3190.60000002384,FALSE,"Russian"
"2395","5b5345492a4d0c0001ae2e12",238,"yes","browns",16,14,1,997.700000047684,FALSE,"Russian"
"2405","5b5345492a4d0c0001ae2e12",239,"yes","yellows",18,16,1,815.199999988079,FALSE,"Russian"
"2419","5b5345492a4d0c0001ae2e12",240,"yes","blues",11,9,1,861.299999952316,TRUE,"Russian"
"2425","5b5345492a4d0c0001ae2e12",241,"yes","yellows",3,5,1,1902.80000001192,FALSE,"Russian"
"2435","5b5345492a4d0c0001ae2e12",242,"yes","yellows",8,6,1,671.800000011921,FALSE,"Russian"
"2445","5b5345492a4d0c0001ae2e12",243,"yes","reds",6,4,1,806.699999988079,FALSE,"Russian"
"2455","5b5345492a4d0c0001ae2e12",244,"yes","yellows",14,16,1,1495,FALSE,"Russian"
"2465","5b5345492a4d0c0001ae2e12",245,"yes","browns",1,3,1,742.699999988079,FALSE,"Russian"
"2475","5b5345492a4d0c0001ae2e12",246,"yes","blues",16,18,0,814.300000011921,FALSE,"Russian"
"2485","5b5345492a4d0c0001ae2e12",247,"yes","yellows",11,13,1,1806.30000001192,TRUE,"Russian"
"2495","5b5345492a4d0c0001ae2e12",248,"yes","reds",10,8,1,839,FALSE,"Russian"
"2505","5b5345492a4d0c0001ae2e12",249,"yes","blues",15,13,1,820.800000011921,FALSE,"Russian"
"2519","5b5345492a4d0c0001ae2e12",250,"yes","reds",7,5,1,782.899999976158,FALSE,"Russian"
"2525","5b5345492a4d0c0001ae2e12",251,"yes","browns",5,3,1,717,FALSE,"Russian"
"2535","5b5345492a4d0c0001ae2e12",252,"yes","browns",5,7,1,942.699999988079,FALSE,"Russian"
"2545","5b5345492a4d0c0001ae2e12",253,"yes","reds",11,9,0,1534.5,FALSE,"Russian"
"2555","5b5345492a4d0c0001ae2e12",254,"yes","blues",4,2,1,1103.30000001192,FALSE,"Russian"
"2565","5b5345492a4d0c0001ae2e12",255,"yes","reds",2,4,1,974.600000023842,FALSE,"Russian"
"2575","5b5345492a4d0c0001ae2e12",256,"yes","browns",1,3,1,1982.29999995232,FALSE,"Russian"
"2585","5b5345492a4d0c0001ae2e12",257,"yes","reds",14,12,1,1351.79999995232,TRUE,"Russian"
"2595","5b5345492a4d0c0001ae2e12",258,"yes","yellows",3,1,1,958.600000023842,FALSE,"Russian"
"2619","5b5345492a4d0c0001ae2e12",260,"yes","reds",11,9,1,2357.10000002384,FALSE,"Russian"
"2625","5b5345492a4d0c0001ae2e12",261,"yes","reds",12,10,1,742.5,TRUE,"Russian"
"2635","5b5345492a4d0c0001ae2e12",262,"yes","yellows",5,7,1,1358.70000004768,FALSE,"Russian"
"2645","5b5345492a4d0c0001ae2e12",263,"yes","reds",16,14,1,2607.69999998808,FALSE,"Russian"
"2655","5b5345492a4d0c0001ae2e12",264,"yes","yellows",16,14,1,1926.19999998808,FALSE,"Russian"
"2665","5b5345492a4d0c0001ae2e12",265,"yes","reds",12,14,1,3661.80000001192,TRUE,"Russian"
"2675","5b5345492a4d0c0001ae2e12",266,"yes","browns",11,9,1,1102.69999998808,TRUE,"Russian"
"2685","5b5345492a4d0c0001ae2e12",267,"yes","blues",10,12,1,934.800000011921,FALSE,"Russian"
"2695","5b5345492a4d0c0001ae2e12",268,"yes","browns",3,5,1,1039.30000001192,FALSE,"Russian"
"2705","5b5345492a4d0c0001ae2e12",269,"yes","blues",5,3,1,934.899999976158,FALSE,"Russian"
"2719","5b5345492a4d0c0001ae2e12",270,"yes","browns",7,9,1,765.899999976158,FALSE,"Russian"
"2725","5b5345492a4d0c0001ae2e12",271,"yes","yellows",17,15,1,846.800000011921,FALSE,"Russian"
"2735","5b5345492a4d0c0001ae2e12",272,"yes","blues",14,12,1,726,FALSE,"Russian"
"2745","5b5345492a4d0c0001ae2e12",273,"yes","yellows",17,15,1,765.5,FALSE,"Russian"
"2755","5b5345492a4d0c0001ae2e12",274,"yes","reds",7,5,1,711.300000011921,FALSE,"Russian"
"2765","5b5345492a4d0c0001ae2e12",275,"yes","yellows",15,13,1,814.399999976158,FALSE,"Russian"
"2775","5b5345492a4d0c0001ae2e12",276,"yes","reds",2,4,1,1102.40000003576,FALSE,"Russian"
"2785","5b5345492a4d0c0001ae2e12",277,"yes","reds",16,14,1,1990.40000003576,FALSE,"Russian"
"2795","5b5345492a4d0c0001ae2e12",278,"yes","blues",6,4,1,653.399999976158,FALSE,"Russian"
"2805","5b5345492a4d0c0001ae2e12",279,"yes","blues",4,6,1,662.400000035763,FALSE,"Russian"
"2819","5b5345492a4d0c0001ae2e12",280,"yes","browns",12,14,1,1102.39999997616,FALSE,"Russian"
"2825","5b5345492a4d0c0001ae2e12",281,"yes","blues",19,17,1,830.599999964237,FALSE,"Russian"
"2835","5b5345492a4d0c0001ae2e12",282,"yes","reds",14,16,1,965.899999976158,FALSE,"Russian"
"2845","5b5345492a4d0c0001ae2e12",283,"yes","browns",5,7,1,798.599999964237,FALSE,"Russian"
"2855","5b5345492a4d0c0001ae2e12",284,"yes","browns",11,13,1,2262.30000001192,FALSE,"Russian"
"2865","5b5345492a4d0c0001ae2e12",285,"yes","reds",4,2,1,1182.80000001192,FALSE,"Russian"
"2875","5b5345492a4d0c0001ae2e12",286,"yes","reds",15,13,0,3295.59999996424,FALSE,"Russian"
"2885","5b5345492a4d0c0001ae2e12",287,"yes","browns",3,1,1,2581.20000004768,FALSE,"Russian"
"2895","5b5345492a4d0c0001ae2e12",288,"yes","reds",7,9,1,1790.39999997616,FALSE,"Russian"
"2905","5b5345492a4d0c0001ae2e12",289,"yes","browns",4,2,1,3415.5,FALSE,"Russian"
"2919","5b5345492a4d0c0001ae2e12",290,"yes","reds",17,19,1,5021.80000001192,FALSE,"Russian"
"2925","5b5345492a4d0c0001ae2e12",291,"yes","browns",7,5,1,1005.69999998808,FALSE,"Russian"
"2935","5b5345492a4d0c0001ae2e12",292,"yes","yellows",4,2,1,1983,FALSE,"Russian"
"2945","5b5345492a4d0c0001ae2e12",293,"yes","yellows",7,9,1,1718.09999996424,FALSE,"Russian"
"2955","5b5345492a4d0c0001ae2e12",294,"yes","browns",5,3,1,894.900000035763,FALSE,"Russian"
"2965","5b5345492a4d0c0001ae2e12",295,"yes","browns",3,5,1,1214.89999997616,FALSE,"Russian"
"2975","5b5345492a4d0c0001ae2e12",296,"yes","reds",18,16,0,1286.19999998808,FALSE,"Russian"
"2985","5b5345492a4d0c0001ae2e12",297,"yes","reds",3,1,1,2510.69999998808,FALSE,"Russian"
"2995","5b5345492a4d0c0001ae2e12",298,"yes","yellows",19,17,1,726.199999988079,FALSE,"Russian"
"720","5b6c874bbd7c4b00017ece51",6,"no","browns",17,19,1,4123.19999992847,FALSE,"Russian"
"820","5b6c874bbd7c4b00017ece51",7,"no","blues",3,1,1,3744.19999992847,FALSE,"Russian"
"920","5b6c874bbd7c4b00017ece51",8,"no","reds",14,12,1,1752,TRUE,"Russian"
"1019","5b6c874bbd7c4b00017ece51",9,"no","yellows",18,20,1,3588.20000004768,FALSE,"Russian"
"1120","5b6c874bbd7c4b00017ece51",10,"no","reds",4,2,1,1530.70000004768,FALSE,"Russian"
"1220","5b6c874bbd7c4b00017ece51",11,"no","blues",11,9,1,1361.10000002384,FALSE,"Russian"
"1320","5b6c874bbd7c4b00017ece51",12,"no","reds",16,14,1,963.100000023842,FALSE,"Russian"
"1420","5b6c874bbd7c4b00017ece51",13,"no","reds",5,7,1,2743.89999997616,FALSE,"Russian"
"1519","5b6c874bbd7c4b00017ece51",14,"no","reds",18,16,0,2659.19999992847,FALSE,"Russian"
"1620","5b6c874bbd7c4b00017ece51",15,"no","yellows",4,6,0,1437.90000009537,FALSE,"Russian"
"1720","5b6c874bbd7c4b00017ece51",16,"no","browns",10,12,1,2819.69999992847,FALSE,"Russian"
"1820","5b6c874bbd7c4b00017ece51",17,"no","browns",9,11,1,2802.59999990463,FALSE,"Russian"
"1920","5b6c874bbd7c4b00017ece51",18,"no","yellows",10,8,1,994.299999952316,FALSE,"Russian"
"2019","5b6c874bbd7c4b00017ece51",19,"no","reds",12,14,1,2981.80000007153,TRUE,"Russian"
"2120","5b6c874bbd7c4b00017ece51",20,"no","blues",16,18,1,2030.20000004768,FALSE,"Russian"
"2220","5b6c874bbd7c4b00017ece51",21,"no","browns",8,6,1,954.600000023842,FALSE,"Russian"
"2320","5b6c874bbd7c4b00017ece51",22,"no","reds",10,8,1,1795.60000002384,FALSE,"Russian"
"2420","5b6c874bbd7c4b00017ece51",23,"no","yellows",11,13,1,1966.20000004768,TRUE,"Russian"
"2520","5b6c874bbd7c4b00017ece51",24,"no","blues",9,11,0,1266.90000009537,FALSE,"Russian"
"2620","5b6c874bbd7c4b00017ece51",25,"no","yellows",12,14,0,1397.89999997616,TRUE,"Russian"
"2720","5b6c874bbd7c4b00017ece51",26,"no","browns",3,5,1,1648.09999990463,FALSE,"Russian"
"2820","5b6c874bbd7c4b00017ece51",27,"no","reds",16,18,0,1151.10000002384,FALSE,"Russian"
"2920","5b6c874bbd7c4b00017ece51",28,"no","browns",1,3,1,1636.69999992847,FALSE,"Russian"
"306","5b6c874bbd7c4b00017ece51",29,"no","yellows",16,18,0,2180.30000007153,FALSE,"Russian"
"316","5b6c874bbd7c4b00017ece51",30,"no","browns",1,3,1,1703.29999995232,FALSE,"Russian"
"326","5b6c874bbd7c4b00017ece51",31,"no","yellows",18,16,1,1143.39999997616,FALSE,"Russian"
"336","5b6c874bbd7c4b00017ece51",32,"no","yellows",6,4,1,1527.20000004768,FALSE,"Russian"
"346","5b6c874bbd7c4b00017ece51",33,"no","blues",11,9,1,1099.5,FALSE,"Russian"
"356","5b6c874bbd7c4b00017ece51",34,"no","yellows",16,18,0,1153.39999997616,FALSE,"Russian"
"366","5b6c874bbd7c4b00017ece51",35,"no","reds",6,8,0,1439.80000007153,FALSE,"Russian"
"376","5b6c874bbd7c4b00017ece51",36,"no","blues",11,13,0,2333.5,FALSE,"Russian"
"386","5b6c874bbd7c4b00017ece51",37,"no","browns",15,13,1,1681.70000004768,TRUE,"Russian"
"396","5b6c874bbd7c4b00017ece51",38,"no","browns",8,6,1,1621.70000004768,FALSE,"Russian"
"406","5b6c874bbd7c4b00017ece51",39,"no","blues",6,4,1,812,FALSE,"Russian"
"416","5b6c874bbd7c4b00017ece51",40,"no","yellows",8,6,1,774.600000023842,FALSE,"Russian"
"426","5b6c874bbd7c4b00017ece51",41,"no","blues",6,4,1,1516.69999992847,FALSE,"Russian"
"436","5b6c874bbd7c4b00017ece51",42,"no","blues",16,14,1,1123,TRUE,"Russian"
"446","5b6c874bbd7c4b00017ece51",43,"no","yellows",3,5,1,1317.5,FALSE,"Russian"
"456","5b6c874bbd7c4b00017ece51",44,"no","reds",16,18,0,3846.89999997616,FALSE,"Russian"
"466","5b6c874bbd7c4b00017ece51",45,"no","reds",3,5,0,1288.19999992847,FALSE,"Russian"
"476","5b6c874bbd7c4b00017ece51",46,"no","reds",18,16,0,976.5,FALSE,"Russian"
"486","5b6c874bbd7c4b00017ece51",47,"no","browns",13,15,0,1167.10000002384,TRUE,"Russian"
"496","5b6c874bbd7c4b00017ece51",48,"no","browns",13,11,1,1330.69999992847,TRUE,"Russian"
"506","5b6c874bbd7c4b00017ece51",49,"no","browns",4,2,1,851.700000047684,FALSE,"Russian"
"516","5b6c874bbd7c4b00017ece51",50,"no","yellows",14,12,1,950.200000047684,TRUE,"Russian"
"526","5b6c874bbd7c4b00017ece51",51,"no","browns",15,17,1,3124.5,FALSE,"Russian"
"536","5b6c874bbd7c4b00017ece51",52,"no","reds",8,6,1,997.300000071526,FALSE,"Russian"
"546","5b6c874bbd7c4b00017ece51",53,"no","blues",16,14,1,3037.79999995232,TRUE,"Russian"
"556","5b6c874bbd7c4b00017ece51",54,"no","blues",4,2,1,2126.89999997616,FALSE,"Russian"
"576","5b6c874bbd7c4b00017ece51",56,"no","browns",9,7,1,1015.70000004768,FALSE,"Russian"
"586","5b6c874bbd7c4b00017ece51",57,"no","yellows",15,17,0,916.299999952316,FALSE,"Russian"
"596","5b6c874bbd7c4b00017ece51",58,"no","reds",11,13,0,1054.80000007153,TRUE,"Russian"
"606","5b6c874bbd7c4b00017ece51",59,"no","blues",13,15,0,1752.69999992847,FALSE,"Russian"
"616","5b6c874bbd7c4b00017ece51",60,"no","browns",19,17,1,806.799999952316,FALSE,"Russian"
"626","5b6c874bbd7c4b00017ece51",61,"no","reds",4,6,0,1016.09999990463,FALSE,"Russian"
"636","5b6c874bbd7c4b00017ece51",62,"no","yellows",10,12,0,901.699999928474,FALSE,"Russian"
"646","5b6c874bbd7c4b00017ece51",63,"no","blues",14,16,0,1780.39999997616,TRUE,"Russian"
"656","5b6c874bbd7c4b00017ece51",64,"no","reds",20,18,0,905.799999952316,FALSE,"Russian"
"666","5b6c874bbd7c4b00017ece51",65,"no","yellows",9,7,1,1566.10000002384,FALSE,"Russian"
"676","5b6c874bbd7c4b00017ece51",66,"no","blues",18,20,1,1866.60000002384,FALSE,"Russian"
"686","5b6c874bbd7c4b00017ece51",67,"no","reds",15,13,1,1738.69999992847,TRUE,"Russian"
"696","5b6c874bbd7c4b00017ece51",68,"no","blues",4,6,0,1392.60000002384,FALSE,"Russian"
"706","5b6c874bbd7c4b00017ece51",69,"no","browns",15,17,0,1038.10000002384,FALSE,"Russian"
"7110","5b6c874bbd7c4b00017ece51",70,"no","blues",12,14,1,967.399999976158,FALSE,"Russian"
"726","5b6c874bbd7c4b00017ece51",71,"no","yellows",5,3,1,2556.79999995232,FALSE,"Russian"
"736","5b6c874bbd7c4b00017ece51",72,"no","yellows",19,17,1,1531.60000002384,FALSE,"Russian"
"746","5b6c874bbd7c4b00017ece51",73,"no","blues",15,13,1,1177.19999992847,FALSE,"Russian"
"756","5b6c874bbd7c4b00017ece51",74,"no","yellows",12,10,1,1112.80000007153,FALSE,"Russian"
"766","5b6c874bbd7c4b00017ece51",75,"no","reds",18,20,1,1079.5,FALSE,"Russian"
"776","5b6c874bbd7c4b00017ece51",76,"no","yellows",16,14,1,3426.5,FALSE,"Russian"
"786","5b6c874bbd7c4b00017ece51",77,"no","browns",8,10,0,926.5,FALSE,"Russian"
"796","5b6c874bbd7c4b00017ece51",78,"no","reds",9,7,1,1439.89999997616,FALSE,"Russian"
"806","5b6c874bbd7c4b00017ece51",79,"no","yellows",10,8,1,1122.70000004768,FALSE,"Russian"
"8110","5b6c874bbd7c4b00017ece51",80,"no","yellows",11,9,1,923.600000023842,FALSE,"Russian"
"826","5b6c874bbd7c4b00017ece51",81,"no","reds",8,10,0,779.700000047684,FALSE,"Russian"
"836","5b6c874bbd7c4b00017ece51",82,"no","yellows",7,5,1,787.899999976158,FALSE,"Russian"
"846","5b6c874bbd7c4b00017ece51",83,"no","blues",5,3,1,745.100000023842,FALSE,"Russian"
"856","5b6c874bbd7c4b00017ece51",84,"no","browns",7,9,1,2471,FALSE,"Russian"
"866","5b6c874bbd7c4b00017ece51",85,"no","yellows",18,16,1,1490.19999992847,FALSE,"Russian"
"876","5b6c874bbd7c4b00017ece51",86,"no","browns",9,7,1,1081.89999997616,FALSE,"Russian"
"886","5b6c874bbd7c4b00017ece51",87,"no","yellows",9,11,0,791.100000023842,FALSE,"Russian"
"896","5b6c874bbd7c4b00017ece51",88,"no","browns",3,1,1,765.800000071526,FALSE,"Russian"
"906","5b6c874bbd7c4b00017ece51",89,"no","browns",12,14,1,2140.19999992847,TRUE,"Russian"
"9110","5b6c874bbd7c4b00017ece51",90,"no","yellows",13,11,1,961.100000023842,TRUE,"Russian"
"926","5b6c874bbd7c4b00017ece51",91,"no","yellows",8,10,0,1280.79999995232,FALSE,"Russian"
"936","5b6c874bbd7c4b00017ece51",92,"no","yellows",15,13,1,2397.29999995232,TRUE,"Russian"
"946","5b6c874bbd7c4b00017ece51",93,"no","reds",20,18,1,958.700000047684,FALSE,"Russian"
"956","5b6c874bbd7c4b00017ece51",94,"no","browns",18,20,1,1316.5,FALSE,"Russian"
"966","5b6c874bbd7c4b00017ece51",95,"no","yellows",6,4,1,2519.70000004768,FALSE,"Russian"
"976","5b6c874bbd7c4b00017ece51",96,"no","browns",5,3,1,654.100000023842,FALSE,"Russian"
"986","5b6c874bbd7c4b00017ece51",97,"no","blues",20,18,1,916.300000071526,FALSE,"Russian"
"996","5b6c874bbd7c4b00017ece51",98,"no","yellows",1,3,0,917,FALSE,"Russian"
"1006","5b6c874bbd7c4b00017ece51",99,"no","reds",19,17,1,1820.20000004768,FALSE,"Russian"
"10110","5b6c874bbd7c4b00017ece51",100,"no","blues",7,5,1,772.799999952316,FALSE,"Russian"
"1026","5b6c874bbd7c4b00017ece51",101,"no","reds",17,19,0,827.300000071526,FALSE,"Russian"
"1036","5b6c874bbd7c4b00017ece51",102,"no","blues",1,3,1,1243.30000007153,FALSE,"Russian"
"1046","5b6c874bbd7c4b00017ece51",103,"no","yellows",9,7,1,1501.89999997616,FALSE,"Russian"
"1056","5b6c874bbd7c4b00017ece51",104,"no","browns",15,13,1,732.399999976158,TRUE,"Russian"
"1066","5b6c874bbd7c4b00017ece51",105,"no","reds",1,3,1,1608.80000007153,FALSE,"Russian"
"1086","5b6c874bbd7c4b00017ece51",107,"no","blues",20,18,1,1269.89999997616,FALSE,"Russian"
"1096","5b6c874bbd7c4b00017ece51",108,"no","blues",7,9,1,2996.09999990463,FALSE,"Russian"
"1106","5b6c874bbd7c4b00017ece51",109,"no","yellows",7,9,1,1302.79999995232,FALSE,"Russian"
"11110","5b6c874bbd7c4b00017ece51",110,"no","browns",6,8,1,2509.60000002384,FALSE,"Russian"
"1126","5b6c874bbd7c4b00017ece51",111,"no","reds",13,15,0,834.299999952316,TRUE,"Russian"
"1136","5b6c874bbd7c4b00017ece51",112,"no","browns",7,5,1,796.200000047684,FALSE,"Russian"
"1146","5b6c874bbd7c4b00017ece51",113,"no","blues",5,7,1,2197.39999997616,FALSE,"Russian"
"1156","5b6c874bbd7c4b00017ece51",114,"no","blues",8,10,1,1585.90000009537,FALSE,"Russian"
"1166","5b6c874bbd7c4b00017ece51",115,"no","blues",8,10,1,1204.89999997616,FALSE,"Russian"
"1176","5b6c874bbd7c4b00017ece51",116,"no","reds",3,1,1,907.099999904633,FALSE,"Russian"
"1186","5b6c874bbd7c4b00017ece51",117,"no","browns",14,16,0,1341.40000009537,TRUE,"Russian"
"1196","5b6c874bbd7c4b00017ece51",118,"no","browns",14,12,1,670.5,TRUE,"Russian"
"1206","5b6c874bbd7c4b00017ece51",119,"no","reds",6,4,1,964.899999976158,FALSE,"Russian"
"12110","5b6c874bbd7c4b00017ece51",120,"no","reds",17,15,1,892.799999952316,FALSE,"Russian"
"1226","5b6c874bbd7c4b00017ece51",121,"no","blues",18,20,1,2415.10000002384,FALSE,"Russian"
"1236","5b6c874bbd7c4b00017ece51",122,"no","yellows",5,7,1,1397.70000004768,FALSE,"Russian"
"1246","5b6c874bbd7c4b00017ece51",123,"no","blues",14,12,1,881.299999952316,FALSE,"Russian"
"1256","5b6c874bbd7c4b00017ece51",124,"no","reds",15,17,0,1656,FALSE,"Russian"
"1266","5b6c874bbd7c4b00017ece51",125,"no","reds",5,3,1,859.699999928474,FALSE,"Russian"
"1276","5b6c874bbd7c4b00017ece51",126,"no","reds",6,4,1,1229.39999997616,FALSE,"Russian"
"1286","5b6c874bbd7c4b00017ece51",127,"no","browns",20,18,1,1820.59999990463,FALSE,"Russian"
"1296","5b6c874bbd7c4b00017ece51",128,"no","yellows",2,4,1,4677.10000002384,FALSE,"Russian"
"1306","5b6c874bbd7c4b00017ece51",129,"no","yellows",1,3,1,961.600000023842,FALSE,"Russian"
"13110","5b6c874bbd7c4b00017ece51",130,"no","yellows",16,14,1,1464.40000009537,FALSE,"Russian"
"1326","5b6c874bbd7c4b00017ece51",131,"no","browns",13,11,1,769.699999928474,TRUE,"Russian"
"1336","5b6c874bbd7c4b00017ece51",132,"no","reds",13,11,1,977.100000023842,TRUE,"Russian"
"1346","5b6c874bbd7c4b00017ece51",133,"no","yellows",15,17,0,806,FALSE,"Russian"
"1356","5b6c874bbd7c4b00017ece51",134,"no","yellows",13,15,0,1942.39999997616,TRUE,"Russian"
"1366","5b6c874bbd7c4b00017ece51",135,"no","browns",8,10,1,1458.80000007153,FALSE,"Russian"
"1376","5b6c874bbd7c4b00017ece51",136,"no","yellows",6,8,1,1232.39999997616,FALSE,"Russian"
"1386","5b6c874bbd7c4b00017ece51",137,"no","blues",12,14,1,1454.79999995232,FALSE,"Russian"
"1396","5b6c874bbd7c4b00017ece51",138,"no","reds",14,16,0,1304.10000002384,FALSE,"Russian"
"1406","5b6c874bbd7c4b00017ece51",139,"no","yellows",11,13,1,864,TRUE,"Russian"
"14110","5b6c874bbd7c4b00017ece51",140,"no","browns",5,7,0,958.799999952316,FALSE,"Russian"
"1426","5b6c874bbd7c4b00017ece51",141,"no","blues",15,17,1,1426.39999997616,TRUE,"Russian"
"1436","5b6c874bbd7c4b00017ece51",142,"no","blues",4,6,1,792.899999976158,FALSE,"Russian"
"1446","5b6c874bbd7c4b00017ece51",143,"no","browns",18,16,1,1783.09999990463,FALSE,"Russian"
"1456","5b6c874bbd7c4b00017ece51",144,"no","blues",13,11,1,712.699999928474,FALSE,"Russian"
"1466","5b6c874bbd7c4b00017ece51",145,"no","browns",6,8,1,1696.10000002384,FALSE,"Russian"
"1476","5b6c874bbd7c4b00017ece51",146,"no","blues",10,12,1,1482,FALSE,"Russian"
"1486","5b6c874bbd7c4b00017ece51",147,"no","browns",14,12,0,2068.20000004768,TRUE,"Russian"
"1496","5b6c874bbd7c4b00017ece51",148,"no","blues",10,8,1,1002.5,FALSE,"Russian"
"1506","5b6c874bbd7c4b00017ece51",149,"no","reds",17,15,1,1200.29999995232,FALSE,"Russian"
"15110","5b6c874bbd7c4b00017ece51",150,"no","reds",7,9,1,1020.79999995232,FALSE,"Russian"
"1526","5b6c874bbd7c4b00017ece51",151,"no","blues",3,5,1,1216,FALSE,"Russian"
"1536","5b6c874bbd7c4b00017ece51",152,"no","reds",7,9,1,845.600000023842,FALSE,"Russian"
"1546","5b6c874bbd7c4b00017ece51",153,"no","browns",12,10,1,1115.60000002384,FALSE,"Russian"
"1556","5b6c874bbd7c4b00017ece51",154,"no","browns",6,4,1,1307.39999997616,FALSE,"Russian"
"1566","5b6c874bbd7c4b00017ece51",155,"no","reds",6,8,1,1431.19999992847,FALSE,"Russian"
"1576","5b6c874bbd7c4b00017ece51",156,"no","yellows",8,6,1,973.399999976158,FALSE,"Russian"
"1596","5b6c874bbd7c4b00017ece51",158,"no","browns",18,20,1,4624.59999990463,FALSE,"Russian"
"1606","5b6c874bbd7c4b00017ece51",159,"no","reds",17,19,0,1873.69999992847,FALSE,"Russian"
"16110","5b6c874bbd7c4b00017ece51",160,"no","browns",7,9,1,740.200000047684,FALSE,"Russian"
"1626","5b6c874bbd7c4b00017ece51",161,"no","reds",10,8,1,1844.70000004768,FALSE,"Russian"
"1636","5b6c874bbd7c4b00017ece51",162,"no","reds",8,6,1,3502,FALSE,"Russian"
"1646","5b6c874bbd7c4b00017ece51",163,"no","browns",17,15,1,1513.5,FALSE,"Russian"
"1656","5b6c874bbd7c4b00017ece51",164,"no","blues",14,12,1,898.600000023842,FALSE,"Russian"
"1666","5b6c874bbd7c4b00017ece51",165,"no","reds",3,1,1,896.600000023842,FALSE,"Russian"
"1676","5b6c874bbd7c4b00017ece51",166,"no","browns",16,14,1,841.400000095367,TRUE,"Russian"
"1686","5b6c874bbd7c4b00017ece51",167,"no","reds",2,4,1,1373.69999992847,FALSE,"Russian"
"1696","5b6c874bbd7c4b00017ece51",168,"no","yellows",8,10,1,1646.19999992847,FALSE,"Russian"
"1706","5b6c874bbd7c4b00017ece51",169,"no","yellows",3,5,1,2014.80000007153,FALSE,"Russian"
"17110","5b6c874bbd7c4b00017ece51",170,"no","reds",13,11,1,818,TRUE,"Russian"
"1726","5b6c874bbd7c4b00017ece51",171,"no","yellows",3,1,1,910.699999928474,FALSE,"Russian"
"1736","5b6c874bbd7c4b00017ece51",172,"no","reds",12,10,1,902.399999976158,FALSE,"Russian"
"1746","5b6c874bbd7c4b00017ece51",173,"no","browns",12,10,1,1789.20000004768,FALSE,"Russian"
"1756","5b6c874bbd7c4b00017ece51",174,"no","yellows",20,18,1,1818.39999997616,FALSE,"Russian"
"1766","5b6c874bbd7c4b00017ece51",175,"no","blues",6,8,1,2026.69999992847,FALSE,"Russian"
"1776","5b6c874bbd7c4b00017ece51",176,"no","reds",11,13,1,2606.40000009537,TRUE,"Russian"
"1786","5b6c874bbd7c4b00017ece51",177,"no","browns",16,14,1,823.200000047684,TRUE,"Russian"
"1796","5b6c874bbd7c4b00017ece51",178,"no","yellows",19,17,0,1005.69999992847,FALSE,"Russian"
"1806","5b6c874bbd7c4b00017ece51",179,"no","reds",10,12,1,755.399999976158,FALSE,"Russian"
"18110","5b6c874bbd7c4b00017ece51",180,"no","blues",10,8,0,1899.20000004768,FALSE,"Russian"
"1826","5b6c874bbd7c4b00017ece51",181,"no","reds",11,9,1,947.100000023842,FALSE,"Russian"
"1836","5b6c874bbd7c4b00017ece51",182,"no","yellows",5,7,1,1926.39999997616,FALSE,"Russian"
"1846","5b6c874bbd7c4b00017ece51",183,"no","blues",15,17,1,2038.5,TRUE,"Russian"
"1856","5b6c874bbd7c4b00017ece51",184,"no","blues",19,17,1,2176.30000007153,FALSE,"Russian"
"1866","5b6c874bbd7c4b00017ece51",185,"no","reds",19,17,1,1143.89999997616,FALSE,"Russian"
"1876","5b6c874bbd7c4b00017ece51",186,"no","reds",4,6,1,1606.70000004768,FALSE,"Russian"
"1886","5b6c874bbd7c4b00017ece51",187,"no","blues",15,13,1,1419.19999992847,FALSE,"Russian"
"1896","5b6c874bbd7c4b00017ece51",188,"no","yellows",3,1,1,3493.29999995232,FALSE,"Russian"
"1906","5b6c874bbd7c4b00017ece51",189,"no","blues",18,16,1,854.799999952316,FALSE,"Russian"
"19110","5b6c874bbd7c4b00017ece51",190,"no","blues",9,7,0,4158,FALSE,"Russian"
"1926","5b6c874bbd7c4b00017ece51",191,"no","yellows",12,14,0,765.5,TRUE,"Russian"
"1936","5b6c874bbd7c4b00017ece51",192,"no","reds",16,14,1,954.400000095367,FALSE,"Russian"
"1946","5b6c874bbd7c4b00017ece51",193,"no","reds",5,7,0,1450.10000002384,FALSE,"Russian"
"1956","5b6c874bbd7c4b00017ece51",194,"no","reds",11,9,1,790.399999976158,FALSE,"Russian"
"1966","5b6c874bbd7c4b00017ece51",195,"no","browns",4,2,1,784.899999976158,FALSE,"Russian"
"1976","5b6c874bbd7c4b00017ece51",196,"no","yellows",9,11,1,1291.70000004768,FALSE,"Russian"
"1986","5b6c874bbd7c4b00017ece51",197,"no","browns",17,15,1,2188.20000004768,FALSE,"Russian"
"1996","5b6c874bbd7c4b00017ece51",198,"no","yellows",17,19,0,2136.90000009537,FALSE,"Russian"
"2006","5b6c874bbd7c4b00017ece51",199,"no","yellows",4,2,1,2942.89999997616,FALSE,"Russian"
"20110","5b6c874bbd7c4b00017ece51",200,"no","reds",9,11,0,1051.5,FALSE,"Russian"
"2026","5b6c874bbd7c4b00017ece51",201,"no","reds",18,20,0,2957,FALSE,"Russian"
"2036","5b6c874bbd7c4b00017ece51",202,"no","browns",6,4,1,1081.5,FALSE,"Russian"
"2046","5b6c874bbd7c4b00017ece51",203,"no","browns",10,8,1,1974.89999997616,FALSE,"Russian"
"2056","5b6c874bbd7c4b00017ece51",204,"no","yellows",17,15,0,1226.70000004768,FALSE,"Russian"
"2066","5b6c874bbd7c4b00017ece51",205,"no","yellows",14,16,1,2630.80000007153,FALSE,"Russian"
"2076","5b6c874bbd7c4b00017ece51",206,"no","yellows",14,16,0,1692,FALSE,"Russian"
"2086","5b6c874bbd7c4b00017ece51",207,"no","reds",2,4,1,1325.20000004768,FALSE,"Russian"
"2106","5b6c874bbd7c4b00017ece51",209,"no","blues",9,7,0,1413.20000004768,FALSE,"Russian"
"21110","5b6c874bbd7c4b00017ece51",210,"no","browns",16,18,1,2146.79999995232,FALSE,"Russian"
"2126","5b6c874bbd7c4b00017ece51",211,"no","reds",7,5,1,1092,FALSE,"Russian"
"2136","5b6c874bbd7c4b00017ece51",212,"no","yellows",7,5,1,1428.29999995232,FALSE,"Russian"
"2146","5b6c874bbd7c4b00017ece51",213,"no","reds",4,2,1,795.399999976158,FALSE,"Russian"
"2156","5b6c874bbd7c4b00017ece51",214,"no","browns",2,4,1,1345.5,FALSE,"Russian"
"2166","5b6c874bbd7c4b00017ece51",215,"no","reds",3,5,1,1105.5,FALSE,"Russian"
"2176","5b6c874bbd7c4b00017ece51",216,"no","reds",12,14,0,1141.90000009537,TRUE,"Russian"
"2186","5b6c874bbd7c4b00017ece51",217,"no","yellows",13,15,1,3404.29999995232,TRUE,"Russian"
"2196","5b6c874bbd7c4b00017ece51",218,"no","blues",14,16,0,925.299999952316,TRUE,"Russian"
"2206","5b6c874bbd7c4b00017ece51",219,"no","yellows",20,18,1,1221.19999992847,FALSE,"Russian"
"22110","5b6c874bbd7c4b00017ece51",220,"no","browns",11,13,1,2213.5,TRUE,"Russian"
"2226","5b6c874bbd7c4b00017ece51",221,"no","yellows",6,8,1,1354.5,FALSE,"Russian"
"2236","5b6c874bbd7c4b00017ece51",222,"no","reds",8,10,1,1524.69999992847,FALSE,"Russian"
"2246","5b6c874bbd7c4b00017ece51",223,"no","blues",8,6,1,2777.39999997616,FALSE,"Russian"
"2256","5b6c874bbd7c4b00017ece51",224,"no","blues",12,10,1,1037.60000002384,FALSE,"Russian"
"2266","5b6c874bbd7c4b00017ece51",225,"no","browns",11,9,1,760.899999976158,FALSE,"Russian"
"2276","5b6c874bbd7c4b00017ece51",226,"no","blues",17,19,1,2596.09999990463,FALSE,"Russian"
"2286","5b6c874bbd7c4b00017ece51",227,"no","reds",5,3,1,1735.40000009537,FALSE,"Russian"
"2296","5b6c874bbd7c4b00017ece51",228,"no","browns",10,12,1,3059.60000002384,FALSE,"Russian"
"2306","5b6c874bbd7c4b00017ece51",229,"no","reds",7,5,1,797.5,FALSE,"Russian"
"23110","5b6c874bbd7c4b00017ece51",230,"no","blues",2,4,1,2448.89999997616,FALSE,"Russian"
"2326","5b6c874bbd7c4b00017ece51",231,"no","blues",7,5,1,2978.79999995232,FALSE,"Russian"
"2336","5b6c874bbd7c4b00017ece51",232,"no","browns",7,5,1,932.699999928474,FALSE,"Russian"
"2346","5b6c874bbd7c4b00017ece51",233,"no","browns",11,9,1,1932.10000002384,FALSE,"Russian"
"2356","5b6c874bbd7c4b00017ece51",234,"no","browns",17,19,1,1726.5,FALSE,"Russian"
"2366","5b6c874bbd7c4b00017ece51",235,"no","blues",4,2,1,1583.29999995232,FALSE,"Russian"
"2376","5b6c874bbd7c4b00017ece51",236,"no","blues",19,17,1,2142.79999995232,FALSE,"Russian"
"2386","5b6c874bbd7c4b00017ece51",237,"no","blues",10,12,0,1962.69999992847,FALSE,"Russian"
"2396","5b6c874bbd7c4b00017ece51",238,"no","blues",7,9,0,1728.70000004768,FALSE,"Russian"
"2406","5b6c874bbd7c4b00017ece51",239,"no","yellows",18,20,1,3776.60000002384,FALSE,"Russian"
"24110","5b6c874bbd7c4b00017ece51",240,"no","yellows",12,10,0,2037,FALSE,"Russian"
"2426","5b6c874bbd7c4b00017ece51",241,"no","yellows",14,12,1,984.099999904633,TRUE,"Russian"
"2436","5b6c874bbd7c4b00017ece51",242,"no","yellows",2,4,1,1190,FALSE,"Russian"
"2446","5b6c874bbd7c4b00017ece51",243,"no","reds",9,11,1,1005.29999995232,FALSE,"Russian"
"2456","5b6c874bbd7c4b00017ece51",244,"no","browns",14,16,1,1205.20000004768,TRUE,"Russian"
"2466","5b6c874bbd7c4b00017ece51",245,"no","browns",18,16,1,1888.29999995232,FALSE,"Russian"
"2476","5b6c874bbd7c4b00017ece51",246,"no","blues",1,3,1,1518.10000002384,FALSE,"Russian"
"2486","5b6c874bbd7c4b00017ece51",247,"no","reds",9,7,1,764.5,FALSE,"Russian"
"2496","5b6c874bbd7c4b00017ece51",248,"no","reds",10,12,1,2267.20000004768,FALSE,"Russian"
"2506","5b6c874bbd7c4b00017ece51",249,"no","blues",13,15,1,2971,FALSE,"Russian"
"25110","5b6c874bbd7c4b00017ece51",250,"no","yellows",7,9,0,877.300000071526,FALSE,"Russian"
"2526","5b6c874bbd7c4b00017ece51",251,"no","blues",5,7,1,1260.69999992847,FALSE,"Russian"
"2536","5b6c874bbd7c4b00017ece51",252,"no","yellows",5,3,1,2464.79999995232,FALSE,"Russian"
"2546","5b6c874bbd7c4b00017ece51",253,"no","reds",13,15,0,1103.39999997616,TRUE,"Russian"
"2556","5b6c874bbd7c4b00017ece51",254,"no","browns",10,8,1,1152.20000004768,FALSE,"Russian"
"2566","5b6c874bbd7c4b00017ece51",255,"no","reds",15,13,0,1067.90000009537,TRUE,"Russian"
"2576","5b6c874bbd7c4b00017ece51",256,"no","browns",9,11,1,2096.89999997616,FALSE,"Russian"
"2586","5b6c874bbd7c4b00017ece51",257,"no","blues",17,19,1,1747.19999992847,FALSE,"Russian"
"2596","5b6c874bbd7c4b00017ece51",258,"no","yellows",10,12,0,2277.20000004768,FALSE,"Russian"
"26110","5b6c874bbd7c4b00017ece51",260,"no","yellows",15,13,1,2066.70000004768,TRUE,"Russian"
"2626","5b6c874bbd7c4b00017ece51",261,"no","blues",17,15,1,1333.89999997616,TRUE,"Russian"
"2636","5b6c874bbd7c4b00017ece51",262,"no","blues",11,13,1,1073.5,FALSE,"Russian"
"2646","5b6c874bbd7c4b00017ece51",263,"no","blues",2,4,1,1112.39999997616,FALSE,"Russian"
"2656","5b6c874bbd7c4b00017ece51",264,"no","blues",9,11,1,1943.5,FALSE,"Russian"
"2666","5b6c874bbd7c4b00017ece51",265,"no","blues",6,8,1,1811.39999997616,FALSE,"Russian"
